Data from Fenster geöffnet_USB4F035431__0__13-30-39-586.txt Node

Date: Tue Feb 02 13:30:39 CET 2021
User: Praktikum
Spectrometer: USB4F03543
Trigger mode: 4
Integration Time (sec): 4,670000E-1
Scans to average: 1
Electric dark correction enabled: true
Nonlinearity correction enabled: false
Boxcar width: 0
XAxis mode: Wavelengths
Number of Pixels in Spectrum: 3648
>>>>>Begin Spectral Data<<<<<
179,969	-690,51
180,181	-690,51
180,394	-690,51
180,606	-741,71
180,819	-604,49
181,031	251,56
181,243	399,01
181,456	-170,32
181,668	-201,04
181,88	269,99
182,093	44,71
182,305	-352,59
182,518	-211,28
182,73	290,47
182,942	188,07
183,155	-334,16
183,367	-174,42
183,579	155,3
183,791	269,99
184,004	-158,03
184,216	-242
184,428	114,34
184,641	151,21
184,853	-297,3
185,065	-194,9
185,277	241,32
185,49	259,75
185,702	-242
185,914	-207,19
186,126	87,72
186,338	212,65
186,551	-285,01
186,763	-149,84
186,975	7,85
187,187	167,59
187,399	-295,25
187,612	-184,66
187,824	196,26
188,036	235,18
188,248	-117,08
188,46	-282,96
188,672	245,41
188,885	38,57
189,097	-145,75
189,309	-289,1
189,521	245,41
189,733	175,78
189,945	-186,71
190,157	-127,32
190,369	46,76
190,581	114,34
190,794	-141,65
191,006	-205,14
191,218	112,3
191,43	284,33
191,642	-188,75
191,854	-196,95
192,066	401,06
192,278	183,98
192,49	-311,63
192,702	-149,84
192,914	243,37
193,126	200,36
193,338	-147,8
193,55	-192,85
193,762	251,56
193,974	-92,5
194,186	-250,19
194,398	-174,42
194,61	128,68
194,822	269,99
195,034	-198,99
195,246	79,53
195,457	231,08
195,669	472,74
195,881	-168,27
196,093	-317,78
196,305	247,46
196,517	-196,95
196,729	-127,32
196,941	-219,47
197,153	351,91
197,365	534,18
197,576	-299,34
197,788	-244,05
198	302,76
198,212	534,18
198,424	-254,29
198,636	-190,8
198,847	-10,58
199,059	136,87
199,271	-321,87
199,483	-90,45
199,695	155,3
199,906	249,51
200,118	-196,95
200,33	-160,08
200,542	906,91
200,753	67,24
200,965	-213,33
201,177	-180,56
201,389	243,37
201,6	-149,84
201,812	-127,32
202,024	-186,71
202,235	48,81
202,447	409,25
202,659	-194,9
202,871	-166,23
203,082	77,48
203,294	-8,53
203,506	-260,43
203,717	-166,23
203,929	220,84
204,141	59,05
204,352	-168,27
204,564	-211,28
204,775	130,73
204,987	464,55
205,199	-211,28
205,41	-90,45
205,622	290,47
205,833	124,58
206,045	-78,16
206,257	-192,85
206,468	24,23
206,68	20,14
206,891	-102,74
207,103	-166,23
207,314	-125,27
207,526	157,35
207,737	-239,95
207,949	-35,16
208,16	171,69
208,372	143,02
208,583	-221,52
208,795	-203,09
209,006	116,39
209,218	192,17
209,429	-219,47
209,641	-209,23
209,852	73,39
210,064	282,28
210,275	-227,67
210,487	-137,56
210,698	360,1
210,909	374,44
211,121	-225,62
211,332	-72,02
211,544	239,27
211,755	394,92
211,966	-35,16
212,178	-217,43
212,389	646,82
212,6	151,21
212,812	102,06
213,023	-127,32
213,234	294,57
213,446	243,37
213,657	-254,29
213,868	-172,37
214,08	540,32
214,291	261,8
214,502	-198,99
214,714	-246,1
214,925	167,59
215,136	118,44
215,347	-213,33
215,559	-211,28
215,77	-41,3
215,981	370,34
216,192	-229,71
216,404	-172,37
216,615	327,33
216,826	313
217,037	-184,66
217,249	-164,18
217,46	554,66
217,671	243,37
217,882	-198,99
218,093	-211,28
218,304	212,65
218,516	339,62
218,727	-385,36
218,938	-166,23
219,149	534,18
219,36	220,84
219,571	-299,34
219,782	-231,76
219,993	468,64
220,205	30,38
220,416	-80,21
220,627	-117,08
220,838	300,71
221,049	679,58
221,26	-174,42
221,471	-317,78
221,682	247,46
221,893	417,44
222,104	-213,33
222,315	-213,33
222,526	-12,63
222,737	118,44
222,948	-332,11
223,159	-106,84
223,37	188,07
223,581	122,54
223,792	-182,61
224,003	-158,03
224,214	30,38
224,425	229,03
224,636	-293,2
224,847	-84,31
225,058	208,55
225,269	269,99
225,48	-211,28
225,691	-295,25
225,902	304,81
226,112	102,06
226,323	-311,63
226,534	-209,23
226,745	81,58
226,956	-49,49
227,167	-182,61
227,378	-119,12
227,589	75,43
227,799	538,27
228,01	-184,66
228,221	-305,49
228,432	50,86
228,643	-20,82
228,853	-198,99
229,064	-219,47
229,275	249,51
229,486	63,15
229,697	-233,81
229,907	-211,28
230,118	237,22
230,329	59,05
230,54	-237,91
230,75	-100,69
230,961	368,29
231,172	110,25
231,383	-131,41
231,593	-209,23
231,804	349,86
232,015	210,6
232,225	-274,77
232,436	-215,38
232,647	358,05
232,857	300,71
233,068	-217,43
233,279	-135,51
233,489	118,44
233,7	145,06
233,91	-213,33
234,121	-160,08
234,332	143,02
234,542	239,27
234,753	-250,19
234,964	-127,32
235,174	145,06
235,385	300,71
235,595	-250,19
235,806	-90,45
236,016	57
236,227	57
236,437	-278,87
236,648	-221,52
236,858	206,5
237,069	48,81
237,279	-184,66
237,49	-217,43
237,7	175,78
237,911	173,74
238,121	-145,75
238,332	-196,95
238,542	296,61
238,753	132,78
238,963	-272,72
239,174	-153,94
239,384	97,96
239,595	188,07
239,805	-198,99
240,015	-201,04
240,226	267,94
240,436	261,8
240,647	-299,34
240,857	-76,12
241,067	204,46
241,278	868
241,488	-305,49
241,698	11,95
241,909	81,58
242,119	212,65
242,329	-153,94
242,54	-174,42
242,75	151,21
242,96	-35,16
243,171	20,14
243,381	-180,56
243,591	-18,77
243,801	360,1
244,012	104,11
244,222	-192,85
244,432	-133,46
244,642	26,28
244,853	-198,99
245,063	-213,33
245,273	255,65
245,483	120,49
245,694	-92,5
245,904	-74,07
246,114	302,76
246,324	1,71
246,534	-225,62
246,744	-196,95
246,955	-147,8
247,165	421,54
247,375	190,12
247,585	-215,38
247,795	192,17
248,005	233,13
248,215	-110,93
248,425	-26,96
248,636	646,82
248,846	114,34
249,056	-166,23
249,266	-225,62
249,476	245,41
249,686	200,36
249,896	-258,39
250,106	-198,99
250,316	110,25
250,526	587,43
250,736	-303,44
250,946	95,91
251,156	433,83
251,366	81,58
251,576	-201,04
251,786	-72,02
251,996	-72,02
252,206	71,34
252,416	-143,7
252,626	-268,63
252,836	36,52
253,046	241,32
253,256	-158,03
253,466	-188,75
253,676	171,69
253,885	378,53
254,095	-198,99
254,305	-84,31
254,515	212,65
254,725	202,41
254,935	-145,75
255,145	-145,75
255,355	296,61
255,564	77,48
255,774	-139,6
255,984	130,73
256,194	220,84
256,404	188,07
256,614	-205,14
256,823	11,95
257,033	165,54
257,243	362,15
257,453	-248,15
257,662	-143,7
257,872	337,57
258,082	175,78
258,292	-192,85
258,501	-49,49
258,711	794,27
258,921	403,11
259,131	-289,1
259,34	-166,23
259,55	147,11
259,76	71,34
259,969	-211,28
260,179	-174,42
260,389	192,17
260,598	415,4
260,808	-94,55
261,018	-133,46
261,227	462,5
261,437	32,43
261,647	-149,84
261,856	-198,99
262,066	284,33
262,275	521,89
262,485	-215,38
262,694	-106,84
262,904	186,02
263,114	315,05
263,323	-180,56
263,533	-170,32
263,742	97,96
263,952	179,88
264,161	-223,57
264,371	-205,14
264,58	130,73
264,79	30,38
264,999	-76,12
265,209	-174,42
265,418	341,67
265,628	218,79
265,837	-196,95
266,047	-139,6
266,256	452,26
266,466	-22,87
266,675	-219,47
266,884	-125,27
267,094	257,7
267,303	476,84
267,513	-141,65
267,722	46,76
267,931	292,52
268,141	102,06
268,35	-205,14
268,559	-188,75
268,769	93,87
268,978	-45,4
269,187	-229,71
269,397	-248,15
269,606	-49,49
269,815	73,39
270,025	-192,85
270,234	-133,46
270,443	-110,93
270,653	100,01
270,862	-256,34
271,071	-229,71
271,28	93,87
271,49	132,78
271,699	-139,6
271,908	-121,17
272,117	108,2
272,327	100,01
272,536	-237,91
272,745	-215,38
272,954	40,62
273,163	253,61
273,372	138,92
273,582	-125,27
273,791	130,73
274	102,06
274,209	-35,16
274,418	32,43
274,627	374,44
274,836	100,01
275,046	130,73
275,255	-90,45
275,464	28,33
275,673	52,91
275,882	157,35
276,091	-10,58
276,3	179,88
276,509	143,02
276,718	3,75
276,927	-57,68
277,136	194,22
277,345	122,54
277,554	63,15
277,763	79,53
277,972	229,03
278,181	235,18
278,39	-2,39
278,599	87,72
278,808	85,67
279,017	243,37
279,226	-143,7
279,435	97,96
279,644	157,35
279,853	216,74
280,062	372,39
280,271	-53,59
280,48	57
280,688	114,34
280,897	91,82
281,106	-80,21
281,315	-6,49
281,524	143,02
281,733	110,25
281,942	138,92
282,151	208,55
282,359	351,91
282,568	-78,16
282,777	36,52
282,986	95,91
283,195	169,64
283,403	153,26
283,612	-10,58
283,821	97,96
284,03	-2,39
284,238	155,3
284,447	57
284,656	104,11
284,865	237,22
285,073	-35,16
285,282	7,85
285,491	161,45
285,699	-98,64
285,908	138,92
286,117	24,23
286,325	190,12
286,534	462,5
286,743	-0,34
286,951	52,91
287,16	269,99
287,369	75,43
287,577	16,04
287,786	50,86
287,995	87,72
288,203	-2,39
288,412	145,06
288,62	24,23
288,829	128,68
289,037	102,06
289,246	114,34
289,455	-67,92
289,663	143,02
289,872	337,57
290,08	36,52
290,289	136,87
290,497	-2,39
290,706	224,94
290,914	-166,23
291,123	-20,82
291,331	69,29
291,54	335,53
291,748	134,82
291,957	145,06
292,165	122,54
292,373	-80,21
292,582	87,72
292,79	65,19
292,999	138,92
293,207	214,7
293,415	24,23
293,624	-106,84
293,832	110,25
294,041	132,78
294,249	13,99
294,457	-80,21
294,666	282,28
294,874	-61,78
295,082	-8,53
295,291	67,24
295,499	69,29
295,707	208,55
295,915	110,25
296,124	79,53
296,332	200,36
296,54	106,15
296,749	206,5
296,957	38,57
297,165	138,92
297,373	157,35
297,581	52,91
297,79	11,95
297,998	-12,63
298,206	-12,63
298,414	124,58
298,622	13,99
298,831	269,99
299,039	63,15
299,247	52,91
299,455	124,58
299,663	407,2
299,871	89,77
300,08	-6,49
300,288	71,34
300,496	120,49
300,704	114,34
300,912	20,14
301,12	18,09
301,328	112,3
301,536	93,87
301,744	-74,07
301,952	65,19
302,16	-49,49
302,368	110,25
302,576	120,49
302,784	212,65
302,992	-51,54
303,2	167,59
303,408	16,04
303,616	81,58
303,824	356,01
304,032	300,71
304,24	269,99
304,448	175,78
304,656	194,22
304,864	482,98
305,072	251,56
305,28	130,73
305,488	276,13
305,696	282,28
305,904	181,93
306,111	-18,77
306,319	233,13
306,527	272,04
306,735	343,72
306,943	214,7
307,151	370,34
307,359	169,64
307,566	245,41
307,774	446,12
307,982	487,08
308,19	255,65
308,398	210,6
308,605	276,13
308,813	202,41
309,021	456,36
309,229	392,87
309,436	220,84
309,644	564,9
309,852	626,34
310,06	571,04
310,267	378,53
310,475	681,63
310,683	673,44
310,89	650,91
311,098	734,88
311,306	794,27
311,513	982,68
311,721	661,15
311,929	800,41
312,136	900,76
312,344	872,09
312,552	1029,79
312,759	808,61
312,967	1261,21
313,174	1201,82
313,382	1064,6
313,589	1035,93
313,797	1257,11
314,005	1310,36
314,212	1148,57
314,42	964,25
314,627	1322,65
314,835	1128,09
315,042	1316,5
315,25	1072,79
315,457	1167
315,665	1033,88
315,872	1339,03
316,08	1334,93
316,287	1375,89
316,495	1990,28
316,702	1592,98
316,909	1693,33
317,117	2156,17
317,324	2109,07
317,532	2219,66
317,739	1963,66
317,946	2068,11
318,154	2033,29
318,361	2154,12
318,569	2395,78
318,776	2293,38
318,983	2127,5
319,191	2500,23
319,398	2473,6
319,605	2621,06
319,813	2836,1
320,02	2576
320,227	3055,23
320,434	3321,46
320,642	3047,04
320,849	2938,49
321,056	3038,84
321,264	3038,84
321,471	3118,72
321,678	2899,58
321,885	2813,57
322,092	3079,8
322,3	2934,4
322,507	2686,59
322,714	2795,14
322,921	2909,82
323,128	3012,22
323,336	3096,19
323,543	3417,72
323,75	3724,91
323,957	3829,36
324,164	4021,87
324,371	3903,09
324,578	3792,5
324,786	4093,55
324,993	4021,87
325,2	4318,82
325,407	4365,93
325,614	4787,81
325,821	5273,18
326,028	5363,29
326,235	5656,15
326,442	5420,63
326,649	5412,44
326,856	5262,94
327,063	5324,38
327,27	5160,54
327,477	5168,73
327,684	4845,15
327,891	4980,32
328,098	5183,07
328,305	5488,21
328,512	5187,16
328,719	6207,05
328,926	6149,71
329,133	6356,55
329,34	6848,07
329,546	6872,64
329,753	6518,34
329,96	6575,69
330,167	6248,01
330,374	6110,8
330,581	6030,93
330,788	5647,96
330,995	5891,66
331,201	6004,3
331,408	5856,85
331,615	6084,17
331,822	5871,19
332,029	6217,29
332,235	6420,04
332,442	6137,42
332,649	5795,41
332,856	6209,1
333,062	6069,84
333,269	5910,1
333,476	5760,59
333,683	6168,14
333,889	6258,25
334,096	6356,55
334,303	6250,06
334,509	6458,95
334,716	6411,85
334,923	6522,44
335,129	6493,77
335,336	6635,08
335,543	6223,44
335,749	6010,45
335,956	5903,95
336,163	5623,38
336,369	5627,48
336,576	5746,26
336,782	5738,07
336,989	5725,78
337,196	6041,17
337,402	6157,9
337,609	6131,28
337,815	6397,51
338,022	6743,62
338,228	6573,64
338,435	6794,82
338,641	7231,04
338,848	7138,88
339,054	7052,86
339,261	6946,37
339,467	7151,17
339,674	7763,51
339,88	7521,85
340,087	7439,93
340,293	7341,63
340,5	7179,84
340,706	7005,76
340,912	6768,2
341,119	6915,65
341,325	7069,25
341,532	7282,24
341,738	7253,56
341,944	7831,09
342,151	7577,14
342,357	7519,8
342,563	7761,46
342,77	7611,96
342,976	7378,49
343,182	7300,67
343,389	7052,86
343,595	6659,65
343,801	6231,63
344,007	6182,48
344,214	5805,65
344,42	6626,89
344,626	6846,02
344,832	7011,9
345,039	7255,61
345,245	7511,61
345,451	7272
345,657	7380,54
345,864	7136,83
346,07	7452,22
346,276	7337,53
346,482	7708,21
346,688	7517,75
346,894	7294,52
347,1	7460,41
347,307	7376,44
347,513	7456,31
347,719	7415,35
347,925	7403,07
348,131	7353,91
348,337	7482,94
348,543	7360,06
348,749	7149,12
348,955	7577,14
349,161	7212,6
349,367	7972,4
349,573	8314,41
349,779	8291,88
349,985	8545,83
350,191	8846,88
350,397	8900,13
350,603	8588,84
350,809	8119,85
351,015	8453,67
351,221	7982,64
351,427	8388,14
351,633	8050,22
351,839	8425
352,045	8121,9
352,251	8113,71
352,457	7913,01
352,663	8437,29
352,869	8445,48
353,075	8803,88
353,28	8834,6
353,486	9367,07
353,692	9367,07
353,898	9160,22
354,104	9453,08
354,31	9485,85
354,515	9371,16
354,721	9477,66
354,927	9068,06
355,133	9338,4
355,339	8803,88
355,544	8662,57
355,75	8449,58
355,956	8416,81
356,162	8269,36
356,367	7745,08
356,573	7548,47
356,779	7255,61
356,984	7306,81
357,19	7214,65
357,396	6907,46
357,602	7468,6
357,807	6739,52
358,013	6563,4
358,218	6405,7
358,424	6911,55
358,63	7321,15
358,835	7917,11
359,041	8425
359,247	9336,35
359,452	9547,29
359,658	9274,91
359,863	9125,41
360,069	9270,81
360,274	8603,18
360,48	8425
360,685	8396,33
360,891	8480,3
361,097	8121,9
361,302	8390,19
361,508	8681
361,713	8597,03
361,918	9416,22
362,124	9461,27
362,329	9623,06
362,535	9907,73
362,74	9315,87
362,946	9750,04
363,151	9391,64
363,357	9672,22
363,562	9745,94
363,767	9666,07
363,973	10077,71
364,178	9752,09
364,383	9864,72
364,589	10155,54
364,794	10239,5
365	11161,09
365,205	11664,89
365,41	11607,55
365,615	11912,69
365,821	11914,74
366,026	12451,31
366,231	11783,67
366,437	11984,37
366,642	11654,65
366,847	11851,25
367,052	11640,31
367,258	11490,81
367,463	11552,25
367,668	11230,72
367,873	11122,18
368,078	11116,03
368,284	11048,45
368,489	11490,81
368,694	11888,12
368,899	11699,7
369,104	12535,28
369,309	12252,66
369,515	12269,04
369,72	12031,48
369,925	11668,98
370,13	11779,57
370,335	11542,01
370,54	11642,36
370,745	11785,72
370,95	11523,58
371,155	11881,97
371,36	11320,83
371,565	11568,63
371,77	11050,5
371,975	10245,65
372,18	10391,05
372,385	10636,81
372,59	10354,19
372,795	9866,77
373	9285,15
373,205	9334,3
373,41	9250,33
373,615	9207,33
373,82	9098,78
374,025	9565,72
374,23	9014,82
374,435	9207,33
374,64	9590,3
374,845	10253,84
375,05	10415,63
375,254	10649,1
375,459	10702,34
375,664	11009,54
375,869	10489,35
376,074	11005,44
376,279	11027,97
376,483	11443,71
376,688	11550,2
376,893	12205,55
377,098	12664,3
377,303	13073,89
377,507	13346,27
377,712	13549,02
377,917	13184,48
378,122	13161,95
378,326	12393,97
378,531	11247,1
378,736	11214,34
378,94	10935,81
379,145	10722,82
379,35	10702,34
379,554	10896,9
379,759	11052,55
379,964	11380,22
380,168	11582,97
380,373	11496,96
380,578	11894,26
380,782	11613,69
380,987	10882,56
381,191	9719,32
381,396	9483,8
381,601	9100,83
381,805	8537,64
382,01	7773,75
382,214	7779,89
382,419	7411,26
382,623	7022,14
382,828	7018,05
383,032	7200,32
383,237	6954,56
383,441	7513,66
383,646	8447,53
383,85	8875,56
384,055	9596,44
384,259	9879,06
384,464	10008,08
384,668	10280,46
384,872	9920,02
385,077	9709,08
385,281	9467,42
385,486	9559,58
385,69	9801,24
385,894	10282,51
386,099	9907,73
386,303	10346
386,507	10573,32
386,712	10094,1
386,916	9846,29
387,12	9834
387,325	10348,04
387,529	10210,83
387,733	9854,48
387,937	10296,85
388,142	9950,74
388,346	10522,12
388,55	10851,85
388,754	11509,24
388,959	11693,56
389,163	11943,41
389,367	12344,81
389,571	12391,92
389,775	12633,58
389,98	12809,7
390,184	12748,26
390,388	13475,29
390,592	13207,01
390,796	13344,22
391	13125,09
391,204	13166,05
391,409	12408,3
391,613	11806,2
391,817	10960,39
392,021	10440,2
392,225	9104,93
392,429	7874,1
392,633	7253,56
392,837	6649,41
393,041	6798,91
393,245	7441,98
393,449	8005,17
393,653	9203,23
393,857	10292,75
394,061	11384,32
394,265	11957,75
394,469	12897,77
394,673	12729,83
394,877	13151,71
395,081	13301,22
395,285	12555,76
395,489	11324,93
395,693	10645
395,896	9192,99
396,1	8582,7
396,304	8551,98
396,508	7886,39
396,712	8594,98
396,916	9973,27
397,12	11697,66
397,323	12735,98
397,527	13981,14
397,731	15474,11
397,935	15658,43
398,139	16262,58
398,342	16819,63
398,546	16778,67
398,75	17223,08
398,954	17274,28
399,157	17034,66
399,361	17474,98
399,565	17395,11
399,769	17653,15
399,972	17452,45
400,176	18124,18
400,38	17864,09
400,583	18378,13
400,787	19203,46
400,991	18701,71
401,194	18634,13
401,398	19363,2
401,601	18816,4
401,805	18791,82
402,009	19477,89
402,212	18802,06
402,416	18920,84
402,619	18949,51
402,823	18582,93
403,026	18353,55
403,23	18013,59
403,433	19084,68
403,637	18085,27
403,841	18224,53
404,044	18969,99
404,247	18632,08
404,451	18670,99
404,654	18058,65
404,858	18576,78
405,061	18398,61
405,265	18443,67
405,468	18820,49
405,672	17692,06
405,875	17685,92
406,078	18079,13
406,282	18060,7
406,485	17616,29
406,689	19078,54
406,892	19203,46
407,095	17778,08
407,299	18408,85
407,502	18904,46
407,705	19182,98
407,909	19713,41
408,112	19959,16
408,315	20694,38
408,518	20401,52
408,722	19105,16
408,925	19017,1
409,128	19031,43
409,331	18759,05
409,535	18257,3
409,738	18519,44
409,941	19027,34
410,144	18722,19
410,347	19838,33
410,551	20024,7
410,754	20450,67
410,957	20749,68
411,16	20571,5
411,363	20981,1
411,566	21488,99
411,769	21532
411,973	20966,76
412,176	20526,45
412,379	21652,83
412,582	20940,14
412,785	20614,51
412,988	21222,76
413,191	20653,42
413,394	20659,57
413,597	20847,98
413,8	21124,46
414,003	21634,4
414,206	20727,15
414,409	21251,43
414,612	20458,87
414,815	21146,98
415,018	21353,83
415,221	21257,57
415,424	21445,99
415,627	21552,48
415,83	21695,84
416,033	21284,2
416,235	21732,7
416,438	21677,41
416,641	20667,76
416,844	20553,07
417,047	20125,05
417,25	20084,09
417,453	20391,28
417,655	19942,78
417,858	20751,73
418,061	20059,51
418,264	20321,65
418,467	20446,58
418,669	20063,61
418,872	20956,52
419,075	20544,88
419,278	20071,8
419,48	20678
419,683	20634,99
419,886	20684,14
420,089	22226,26
420,291	21525,86
420,494	22103,39
420,697	21501,28
420,899	21736,8
421,102	20469,11
421,305	21415,27
421,507	20665,71
421,71	20241,78
421,912	20460,91
422,115	20508,02
422,318	19692,93
422,52	19961,21
422,723	20254,07
422,925	21222,76
423,128	20442,48
423,33	20329,84
423,533	20016,51
423,735	20774,25
423,938	21050,73
424,14	20876,65
424,343	20065,66
424,545	21345,64
424,748	20356,47
424,95	20123
425,153	21253,48
425,355	20817,26
425,558	21941,6
425,76	20675,95
425,962	20147,58
426,165	19563,9
426,367	21300,58
426,57	20602,22
426,772	19897,72
426,974	20292,98
427,177	19436,93
427,379	19760,51
427,581	20233,59
427,784	20630,9
427,986	18828,68
428,188	19887,48
428,39	19705,21
428,593	18900,36
428,795	19314,05
428,997	18361,75
429,2	16979,37
429,402	17149,35
429,604	16141,75
429,806	15160,77
430,008	15914,42
430,211	16502,19
430,413	17135,01
430,615	18271,64
430,817	20497,78
431,019	20999,53
431,221	21687,65
431,423	20862,32
431,626	21552,48
431,828	21536,1
432,03	21423,46
432,232	21785,95
432,434	22861,13
432,636	22889,81
432,838	21689,7
433,04	20991,34
433,242	21542,24
433,444	20434,29
433,646	21134,7
433,848	21626,21
434,05	22455,64
434,252	22168,92
434,454	21962,08
434,656	22854,99
434,858	23385,41
435,06	23813,44
435,262	24233,27
435,464	25193,77
435,666	24696,11
435,868	24450,36
436,07	25136,43
436,271	25687,33
436,473	24200,51
436,675	24636,72
436,877	23788,86
437,079	22408,53
437,281	22799,69
437,482	22861,13
437,684	23139,66
437,886	22265,17
438,088	22052,19
438,29	22465,88
438,491	23086,41
438,693	22893,9
438,895	23516,48
439,097	25709,86
439,298	23608,64
439,5	23491,91
439,702	23471,43
439,903	23110,99
440,105	24995,12
440,307	25568,55
440,508	25335,08
440,71	26631,44
440,912	26068,25
441,113	25240,87
441,315	26068,25
441,517	26410,26
441,718	27151,63
441,92	26293,53
442,121	25820,45
442,323	26518,81
442,524	26160,41
442,726	26367,26
442,928	25906,46
443,129	26578,2
443,331	25195,82
443,532	25808,16
443,734	26586,39
443,935	27178,25
444,136	25146,67
444,338	26555,67
444,539	25824,54
444,741	25742,63
444,942	24608,05
445,144	24806,7
445,345	25625,89
445,546	25535,78
445,748	24982,83
445,949	24716,59
446,151	25568,55
446,352	26520,85
446,553	26727,7
446,755	25949,47
446,956	27301,13
447,157	27452,68
447,359	26832,15
447,56	26813,71
447,761	26869,01
447,962	27698,44
448,164	28450,04
448,365	26117,4
448,566	27116,81
448,767	26414,36
448,969	28249,34
449,17	27858,18
449,371	27315,47
449,572	28380,41
449,773	28357,88
449,974	28384,51
450,176	29213,93
450,377	29801,7
450,578	29377,77
450,779	27690,24
450,98	26225,95
451,181	27170,06
451,382	27292,94
451,583	26737,94
451,784	26500,37
451,986	27790,59
452,187	26076,44
452,388	25363,75
452,589	24653,11
452,79	27276,55
452,991	25316,65
453,192	27602,18
453,393	27110,67
453,594	28871,92
453,795	26481,94
453,995	26596,63
454,196	26496,28
454,397	27381
454,598	26852,62
454,799	27671,81
455	28267,77
455,201	27526,41
455,402	28546,3
455,603	27168,01
455,804	29631,72
456,004	30268,64
456,205	28468,47
456,406	28200,19
456,607	28040,45
456,808	28964,08
457,008	27647,24
457,209	27014,41
457,41	30063,84
457,611	27839,75
457,811	28708,08
458,012	28863,73
458,213	28785,91
458,414	28118,27
458,614	28417,27
458,815	27845,89
459,016	28081,41
459,216	29281,52
459,417	29322,48
459,618	29502,7
459,818	29502,7
460,019	29007,09
460,22	29574,38
460,42	29969,63
460,621	28785,91
460,821	30205,15
461,022	29971,68
461,223	29009,14
461,423	29902,05
461,624	30659,8
461,824	31098,06
462,025	29498,6
462,225	30688,47
462,426	31792,33
462,626	30897,36
462,827	30287,07
463,027	30129,37
463,228	30639,32
463,428	29893,86
463,628	29930,72
463,829	31435,98
464,029	29953,25
464,23	30706,9
464,43	30254,3
464,63	30151,9
464,831	30786,77
465,031	31403,21
465,231	32339,13
465,432	31704,26
465,632	31816,9
465,832	29304,04
466,033	31601,86
466,233	30860,5
466,433	30975,19
466,634	31966,4
466,834	32824,5
467,034	31608,01
467,234	33787,05
467,435	32382,14
467,635	33641,64
467,835	31468,75
468,035	33854,63
468,235	33162,42
468,436	33131,7
468,636	33066,16
468,836	32883,89
469,036	34571,42
469,236	33256,62
469,436	32554,17
469,636	34061,47
469,836	33666,22
470,037	33391,79
470,237	33942,69
470,437	34956,44
470,637	34276,51
470,837	35476,62
471,037	35998,85
471,237	37260,4
471,437	36729,98
471,637	37049,46
471,837	37291,12
472,037	35576,97
472,237	36129,92
472,437	36420,73
472,637	37370,99
472,837	36781,18
473,036	36662,4
473,236	37581,93
473,436	36889,72
473,636	37688,43
473,836	36795,51
474,036	38734,94
474,236	38790,23
474,436	38904,92
474,635	38839,39
474,835	38517,85
475,035	39973,96
475,235	40873,02
475,435	39965,77
475,634	39498,83
475,834	41311,28
476,034	41335,86
476,234	41743,41
476,433	41554,99
476,633	42705,95
476,833	43627,54
477,033	43289,62
477,232	44780,54
477,432	42941,47
477,632	45054,97
477,831	44260,36
478,031	44258,31
478,231	45825,01
478,43	46224,36
478,63	46941,15
478,829	46810,08
479,029	47750,1
479,229	48354,25
479,428	48499,65
479,628	49441,72
479,827	49544,12
480,027	49193,92
480,226	50072,49
480,426	51663,77
480,625	49996,72
480,825	52566,92
481,024	52355,98
481,224	52980,61
481,423	51626,9
481,623	52892,55
481,822	52372,36
482,021	53490,55
482,221	53699,45
482,42	53308,29
482,62	54248,3
482,819	53250,94
483,018	53138,3
483,218	53259,13
483,417	54133,62
483,616	53506,94
483,816	53560,19
484,015	53576,57
484,214	52982,66
484,414	51387,29
484,613	49521,59
484,812	48872,38
485,011	48581,57
485,211	47440,85
485,41	47387,61
485,609	48088,01
485,808	48481,22
486,008	49939,38
486,207	49945,52
486,406	51100,57
486,605	51274,65
486,804	52409,23
487,003	53527,42
487,203	54555,5
487,402	53506,94
487,601	54203,25
487,8	53758,84
487,999	54721,38
488,198	55243,62
488,397	56277,84
488,596	56326,99
488,795	57031,49
488,994	57752,38
489,193	57434,94
489,392	58575,66
489,591	58637,1
489,79	57987,89
489,989	58774,31
490,188	57967,41
490,387	57854,78
490,586	56814,41
490,785	56828,74
490,984	56486,73
491,183	56249,17
491,382	56079,19
491,581	56658,76
491,779	57279,3
491,978	58106,68
492,177	58151,73
492,376	58323,76
492,575	58620,72
492,774	58262,32
492,972	58540,85
493,171	58704,68
493,37	59288,35
493,569	60058,39
493,768	59984,66
493,966	60418,83
494,165	59851,55
494,364	60777,23
494,563	59585,31
494,761	60271,38
494,96	59564,83
495,159	60613,39
495,357	59360,03
495,556	60334,87
495,755	59829,02
495,953	60478,22
496,152	60025,62
496,35	60685,07
496,549	59919,13
496,748	60171,03
496,946	59355,94
497,145	58411,82
497,343	58266,42
497,542	58516,27
497,74	58622,76
497,939	58985,25
498,137	59142,95
498,336	59204,39
498,534	58583,85
498,733	58491,69
498,931	58245,94
499,13	57912,12
499,328	57258,82
499,527	57262,91
499,725	56011,6
499,924	56390,48
500,122	55554,91
500,32	55790,42
500,519	55139,17
500,717	55092,07
500,915	54856,55
501,114	55085,92
501,312	55182,18
501,51	55778,14
501,709	55501,66
501,907	56144,72
502,105	55239,52
502,304	55743,32
502,502	55094,11
502,7	54596,46
502,898	53584,76
503,097	54016,88
503,295	53902,2
503,493	54760,3
503,691	54780,77
503,889	54664,04
504,088	55446,36
504,286	55915,35
504,484	56144,72
504,682	56660,81
504,88	57002,82
505,078	56918,85
505,276	56994,63
505,474	57344,83
505,672	56189,78
505,871	56054,61
506,069	56230,74
506,267	55862,1
506,465	55823,19
506,663	55309,15
506,861	54594,41
507,059	55047,01
507,257	55001,96
507,455	55980,88
507,653	55860,05
507,851	56548,17
508,049	56058,71
508,246	56716,11
508,444	56230,74
508,642	56849,22
508,84	56372,05
509,038	56566,6
509,236	56421,2
509,434	56116,05
509,632	57117,51
509,829	56609,61
510,027	56795,98
510,225	57506,62
510,423	57713,47
510,621	57594,68
510,818	58071,86
511,016	58008,37
511,214	57695,03
511,412	57699,13
511,609	57224
511,807	57201,47
512,005	56886,09
512,203	57537,34
512,4	56693,58
512,598	56947,53
512,796	56206,16
512,993	56458,06
513,191	56396,62
513,389	56116,05
513,586	56976,2
513,784	56755,02
513,981	56988,49
514,179	57264,96
514,377	57238,34
514,574	57316,16
514,772	57649,98
514,969	57445,18
515,167	55706,46
515,364	55348,06
515,562	53887,86
515,759	52970,37
515,957	51747,73
516,154	52728,71
516,352	52771,72
516,549	53175,17
516,746	53519,23
516,944	53443,45
517,141	53566,33
517,339	53216,13
517,536	53814,13
517,733	53945,2
517,931	55071,59
518,128	56228,69
518,325	56042,32
518,523	57066,31
518,72	57250,63
518,917	58731,31
519,115	58688,3
519,312	58559,28
519,509	58569,52
519,707	59040,55
519,904	59104,04
520,101	59847,45
520,298	59661,08
520,495	60539,66
520,693	59804,44
520,89	60478,22
521,087	59730,72
521,284	60883,72
521,481	59616,03
521,678	60316,43
521,876	59360,03
522,073	60285,71
522,27	59740,96
522,467	60498,7
522,664	60414,74
522,861	61547,26
523,058	61276,93
523,255	61823,74
523,452	61788,92
523,649	61971,19
523,846	61709,05
524,043	61829,88
524,24	61782,78
524,437	61643,52
524,634	61809,4
524,831	61309,7
525,028	60828,43
525,225	60072,73
525,422	58706,73
525,619	57533,24
525,816	56843,08
526,013	57991,99
526,209	57615,16
526,406	57979,7
526,603	57963,32
526,8	58716,97
526,997	58815,27
527,194	59925,27
527,39	60298
527,587	60738,32
527,784	60994,31
527,981	61518,59
528,177	61717,24
528,374	61956,86
528,571	61809,4
528,768	61899,51
528,964	61588,22
529,161	61733,63
529,358	62022,39
529,554	62022,39
529,751	62094,07
529,948	62333,68
530,144	62302,96
530,341	62556,91
530,537	62302,96
530,734	62431,99
530,931	61770,49
531,127	61381,38
531,324	60951,3
531,52	60052,25
531,717	59927,32
531,913	59777,82
532,11	59446,05
532,306	59863,83
532,503	59759,39
532,699	59732,76
532,896	60283,67
533,092	59820,83
533,289	60117,78
533,485	60302,1
533,682	60369,68
533,878	60912,39
534,074	60558,09
534,271	61367,04
534,467	61219,59
534,664	61743,87
534,86	61455,1
535,056	61682,43
535,253	61063,94
535,449	61231,88
535,645	60508,94
535,841	60680,97
536,038	59872,03
536,234	59863,83
536,43	60306,19
536,626	60132,12
536,823	59910,94
537,019	60506,9
537,215	60199,7
537,411	60334,87
537,607	59663,13
537,804	60011,29
538	59611,93
538,196	59269,92
538,392	58837,8
538,588	58907,43
538,784	58008,37
538,98	57576,25
539,176	57066,31
539,373	57975,61
539,569	56691,53
539,765	56886,09
539,961	57125,7
540,157	57371,46
540,353	56765,26
540,549	57500,48
540,745	57230,15
540,941	57500,48
541,137	56931,14
541,333	57297,73
541,528	57516,86
541,724	57238,34
541,92	57326,4
542,116	56900,42
542,312	57207,62
542,508	57697,08
542,704	57832,25
542,9	57668,41
543,096	57746,23
543,291	58184,5
543,487	57600,83
543,683	57998,13
543,879	57226,05
544,075	57258,82
544,27	57922,36
544,466	57578,3
544,662	56935,24
544,858	58080,05
545,053	57441,09
545,249	57492,29
545,445	56939,33
545,64	57131,84
545,836	56806,22
546,032	56515,4
546,227	56632,14
546,423	56505,16
546,619	55771,99
546,814	56642,38
547,01	55825,24
547,205	57127,75
547,401	56025,94
547,597	57180,99
547,792	56419,15
547,988	56990,53
548,183	56552,27
548,379	56791,88
548,574	56216,4
548,77	56656,71
548,965	56255,31
549,161	56165,2
549,356	55978,84
549,552	56705,87
549,747	56027,99
549,942	55976,79
550,138	55876,44
550,333	55669,59
550,529	56075,09
550,724	56380,24
550,919	55472,99
551,115	56169,3
551,31	55700,31
551,505	56005,46
551,701	55010,15
551,896	55358,3
552,091	55182,18
552,287	55479,13
552,482	55472,99
552,677	55442,27
552,872	54942,56
553,067	55130,98
553,263	55364,45
553,458	55458,65
553,653	55792,47
553,848	56083,28
554,043	54723,43
554,239	55544,67
554,434	55313,25
554,629	55186,27
554,824	54496,11
555,019	54356,85
555,214	54059,89
555,409	54207,34
555,604	53500,79
555,799	53293,95
555,994	53095,3
556,189	52437,9
556,384	52644,74
556,579	53062,53
556,774	53126,02
556,969	51923,86
557,164	52126,61
557,359	51735,45
557,554	51651,48
557,749	51067,81
557,944	51323,8
558,139	50975,65
558,334	50727,84
558,529	50899,87
558,724	50682,79
558,918	51119,01
559,113	51276,7
559,308	50877,35
559,503	51076
559,698	51340,19
559,893	51446,68
560,087	51137,44
560,282	50774,95
560,477	51602,33
560,672	50258,86
560,866	50613,16
561,061	50471,85
561,256	51411,87
561,45	50920,35
561,645	51225,5
561,84	50600,87
562,034	51016,61
562,229	50262,96
562,424	50430,89
562,618	50117,55
562,813	50645,93
563,008	49634,23
563,202	50127,79
563,397	49699,76
563,591	50236,33
563,786	49925,04
563,98	49961,9
564,175	49112
564,369	48972,74
564,564	48919,49
564,758	48882,62
564,953	48264,14
565,147	48817,09
565,342	48186,32
565,536	48653,25
565,731	48294,86
565,925	48686,02
566,119	48577,48
566,314	48597,96
566,508	47711,19
566,703	48356,3
566,897	47795,15
567,091	47600,6
567,286	47031,26
567,48	47061,98
567,674	47078,36
567,868	46308,33
568,063	46113,77
568,257	46590,95
568,451	46218,22
568,646	45749,23
568,84	45825,01
569,034	45581,3
569,228	45122,55
569,422	45603,83
569,616	44639,23
569,811	44694,53
570,005	44917,76
570,199	44874,75
570,393	45134,84
570,587	45483
570,781	45489,14
570,975	45427,7
571,169	45222,9
571,364	45915,12
571,558	45884,4
571,752	45976,56
571,946	45304,82
572,14	46314,47
572,334	45931,5
572,528	45992,94
572,722	45224,95
572,916	45419,51
573,109	45566,96
573,303	45304,82
573,497	44731,39
573,691	45337,59
573,885	44475,4
574,079	44841,98
574,273	44379,14
574,467	44803,07
574,661	44438,53
574,854	44557,31
575,048	44125,19
575,242	43953,16
575,436	44057,61
575,63	44850,17
575,823	44438,53
576,017	44514,31
576,211	44082,19
576,405	44151,82
576,598	43402,26
576,792	44274,7
576,986	43447,32
577,18	43176,98
577,373	43455,51
577,567	43592,72
577,761	43826,19
577,954	44028,94
578,148	43631,63
578,341	44555,27
578,535	44764,16
578,729	44825,6
578,922	44119,05
579,116	44678,14
579,309	44293,13
579,503	44977,15
579,696	45014,01
579,89	45560,82
580,083	45585,4
580,277	45224,95
580,47	45011,96
580,664	45581,3
580,857	45499,38
581,051	45345,78
581,244	45048,83
581,437	46271,46
581,631	45902,83
581,824	46105,58
582,018	46195,69
582,211	46138,35
582,404	46031,85
582,598	46097,39
582,791	46277,61
582,984	45847,54
583,178	46466,02
583,371	46193,64
583,564	45511,67
583,757	45896,69
583,951	45366,26
584,144	44942,33
584,337	44731,39
584,53	45229,05
584,723	44315,65
584,917	44868,61
585,11	44438,53
585,303	45261,82
585,496	44735,49
585,689	44512,26
585,882	44055,56
586,075	44164,1
586,268	43734,03
586,462	43115,54
586,655	43011,1
586,848	43009,05
587,041	41239,61
587,234	40477,76
587,427	39230,55
587,62	39144,53
587,813	37897,32
588,006	37284,98
588,199	36459,65
588,392	36582,52
588,585	36562,04
588,777	37033,08
588,97	36826,23
589,163	38507,62
589,356	38196,32
589,549	38376,55
589,742	37966,95
589,935	38657,12
590,128	38683,74
590,32	38909,02
590,513	38655,07
590,706	38972,5
590,899	38605,92
591,092	39136,34
591,284	38757,47
591,477	39527,5
591,67	39502,93
591,863	39986,25
592,055	39666,77
592,248	40189
592,441	39699,53
592,633	39435,34
592,826	39060,57
593,019	38937,69
593,211	38679,64
593,404	38235,24
593,596	38204,52
593,789	38573,15
593,982	38749,28
594,174	38560,86
594,367	39011,42
594,559	39613,52
594,752	39015,51
594,944	38929,5
595,137	39455,82
595,329	39773,26
595,522	39990,34
595,714	39861,32
595,907	39584,85
596,099	39709,77
596,292	39875,66
596,484	39547,98
596,676	39257,17
596,869	39677,01
597,061	40406,08
597,253	39777,36
597,446	39457,87
597,638	40264,77
597,83	39949,39
598,023	39720,01
598,215	39814,22
598,407	40340,55
598,6	40195,14
598,792	40322,12
598,984	40215,62
599,176	40297,54
599,369	40129,61
599,561	41010,23
599,753	39486,54
599,945	40399,94
600,137	39849,03
600,329	40080,46
600,522	39324,75
600,714	39744,59
600,906	39437,39
601,098	39908,43
601,29	39531,6
601,482	40035,4
601,674	40150,09
601,866	40240,2
602,058	39810,12
602,25	40520,77
602,442	40184,9
602,634	40567,87
602,826	40076,36
603,018	40385,6
603,21	41100,34
603,402	40391,75
603,594	40098,89
603,786	40322,12
603,978	40537,15
604,17	40225,86
604,362	40121,41
604,554	40428,61
604,745	40567,87
604,937	40309,83
605,129	39941,19
605,321	39717,96
605,513	39752,78
605,704	39967,82
605,896	39472,21
606,088	39885,9
606,28	39554,13
606,471	39275,6
606,663	38861,91
606,855	39201,88
607,047	39425,11
607,238	39109,72
607,43	38519,9
607,622	39089,24
607,813	38634,59
608,005	38421,6
608,197	38577,25
608,388	38679,64
608,58	37635,18
608,771	38464,61
608,963	37946,47
609,154	37969
609,346	37622,89
609,537	37764,2
609,729	38079,59
609,921	37901,42
610,112	38022,25
610,303	37350,51
610,495	37284,98
610,686	37545,07
610,878	36930,68
611,069	36693,11
611,261	36428,93
611,452	36623,48
611,643	36344,96
611,835	36615,29
612,026	35998,85
612,217	36545,66
612,409	36123,78
612,6	36029,57
612,791	35318,93
612,983	35822,73
613,174	36234,37
613,365	35658,89
613,557	35255,44
613,748	36140,16
613,939	35638,41
614,13	35943,56
614,321	34968,73
614,513	36066,44
614,704	35048,6
614,895	34940,05
615,086	34272,42
615,277	34565,28
615,468	34489,5
615,659	34962,58
615,851	34165,92
616,042	34737,3
616,233	35067,03
616,424	35323,02
616,615	35468,43
616,806	35327,12
616,997	35185,81
617,188	35331,22
617,379	35564,68
617,57	35626,12
617,761	35525,77
617,952	35652,75
618,143	35161,23
618,334	35845,26
618,524	35802,25
618,715	35691,66
618,906	35607,69
619,097	35959,94
619,288	36107,4
619,479	36297,86
619,67	35800,2
619,86	35961,99
620,051	35961,99
620,242	36033,67
620,433	36215,94
620,624	36742,27
620,814	36039,81
621,005	35998,85
621,196	35769,48
621,386	36527,23
621,577	36250,75
621,768	35517,58
621,958	36187,27
622,149	36193,41
622,34	36185,22
622,53	35802,25
622,721	35724,43
622,912	36693,11
623,102	36318,34
623,293	36045,96
623,483	35992,71
623,674	36260,99
623,864	36258,95
624,055	35853,45
624,245	35878,02
624,436	35959,94
624,626	36031,62
624,817	35830,92
625,007	35847,3
625,198	36226,18
625,388	35955,85
625,579	36217,99
625,769	36539,52
625,959	36172,93
626,15	35214,48
626,34	34743,45
626,531	34383,01
626,721	34669,72
626,911	34249,89
627,101	34018,47
627,292	34256,03
627,482	34938,01
627,672	34831,51
627,863	34751,64
628,053	34753,69
628,243	34907,29
628,433	34399,39
628,623	34299,04
628,814	34391,2
629,004	35042,45
629,194	34798,74
629,384	34829,46
629,574	34616,47
629,764	34964,63
629,955	34761,88
630,145	35253,39
630,335	34622,62
630,525	34696,35
630,715	34874,52
630,905	35095,7
631,095	34661,53
631,285	35378,32
631,475	35146,9
631,665	35558,54
631,855	35251,34
632,045	34915,48
632,235	35304,59
632,425	34948,25
632,615	34948,25
632,805	35443,85
632,994	34786,46
633,184	35450
633,374	35159,19
633,564	35398,8
633,754	35493,01
633,944	35402,89
634,133	34772,12
634,323	35413,13
634,513	35460,24
634,703	35402,89
634,893	35406,99
635,082	35406,99
635,272	34997,4
635,462	35521,68
635,651	35777,67
635,841	35884,17
636,031	35419,28
636,221	35286,16
636,41	35261,58
636,6	34921,62
636,789	35828,87
636,979	35503,24
637,169	35415,18
637,358	35691,66
637,548	35908,74
637,737	35044,5
637,927	35304,59
638,116	35429,52
638,306	34821,27
638,495	35122,32
638,685	34538,65
638,874	35398,8
639,064	34765,98
639,253	34892,95
639,443	34258,08
639,632	34903,19
639,822	34184,35
640,011	34509,98
640,2	34464,92
640,39	34368,67
640,579	34489,5
640,768	33916,07
640,958	34260,13
641,147	34587,8
641,336	34131,11
641,526	34546,84
641,715	33926,31
641,904	34618,52
642,093	33764,52
642,283	34692,25
642,472	33746,09
642,661	34129,06
642,85	34174,11
643,039	33531,05
643,228	33580,2
643,418	34088,1
643,607	33666,22
643,796	33367,21
643,985	32740,54
644,174	33176,75
644,363	33014,96
644,552	32650,42
644,741	31884,48
644,93	32167,1
645,119	31659,21
645,308	31210,7
645,497	31126,74
645,686	31087,82
645,875	30854,36
646,064	30362,84
646,253	29637,86
646,442	30463,19
646,631	29811,94
646,82	29684,97
647,009	29672,68
647,198	29785,32
647,387	29488,36
647,575	29226,22
647,764	29570,28
647,953	29256,94
648,142	29494,5
648,331	29508,84
648,519	29367,53
648,708	30223,58
648,897	30045,41
649,086	30418,14
649,274	30649,56
649,463	30612,7
649,652	30711
649,84	30029,02
650,029	29758,69
650,218	29910,24
650,406	29713,64
650,595	29457,64
650,784	29713,64
650,972	29904,1
651,161	29938,91
651,349	30024,93
651,538	30162,14
651,726	30770,39
651,915	30098,66
652,104	30473,43
652,292	30043,36
652,481	30440,67
652,669	30633,18
652,857	30346,46
653,046	29938,91
653,234	29920,48
653,423	30018,78
653,611	29596,9
653,8	28830,96
653,988	29093,1
654,176	27718,92
654,365	27036,94
654,553	26467,61
654,741	26459,41
654,93	25439,53
655,118	25531,69
655,306	25586,98
655,494	26207,51
655,683	26449,18
655,871	26578,2
656,059	27104,53
656,247	27757,83
656,436	28077,31
656,624	28429,56
656,812	28155,13
657	28593,4
657,188	29068,53
657,376	29123,82
657,564	29179,12
657,753	29121,77
657,941	29332,72
658,129	29533,42
658,317	29050,1
658,505	29213,93
658,693	29453,55
658,881	29306,09
659,069	29580,52
659,257	29535,46
659,445	29852,9
659,633	29799,65
659,821	29648,1
660,009	30160,09
660,197	30293,21
660,384	30065,89
660,572	30047,46
660,76	30180,57
660,948	29842,66
661,136	29750,5
661,324	30201,05
661,512	30549,21
661,699	29480,17
661,887	30020,83
662,075	29641,96
662,263	29676,77
662,451	29379,82
662,638	29850,85
662,826	29302
663,014	29793,51
663,201	29480,17
663,389	29396,2
663,577	29363,43
663,764	30586,07
663,952	29486,31
664,14	29601
664,327	29410,54
664,515	29568,23
664,702	29273,32
664,89	29314,28
665,078	28923,12
665,265	29398,25
665,453	29250,8
665,64	28863,73
665,828	28908,79
666,015	29222,12
666,203	28972,27
666,39	29144,3
666,578	28703,99
666,765	28830,96
666,952	29246,7
667,14	29285,61
667,327	28673,27
667,515	28964,08
667,702	28888,31
667,889	28919,03
668,077	28495,1
668,264	29021,42
668,451	28626,17
668,638	28353,79
668,826	28484,86
669,013	28507,38
669,2	28677,37
669,388	28366,07
669,575	27946,24
669,762	28214,52
669,949	28036,35
670,136	33320,11
670,323	27397,38
670,511	28007,68
670,698	28052,73
670,885	27849,99
671,072	27436,3
671,259	27784,45
671,446	27581,7
671,633	27344,14
671,82	27389,19
672,007	27378,95
672,194	27327,75
672,381	27571,46
672,568	27503,88
672,755	27714,82
672,942	27317,51
673,129	27237,64
673,316	27202,83
673,503	27143,44
673,69	27374,86
673,877	27088,14
674,064	27282,7
674,251	27256,07
674,437	26934,54
674,624	26981,65
674,811	26916,11
674,998	27233,55
675,185	26846,48
675,372	26873,1
675,558	26596,63
675,745	26588,44
675,932	26885,39
676,119	26717,46
676,305	26535,19
676,492	27346,19
676,679	26803,47
676,865	26582,29
677,052	26361,11
677,239	26729,75
677,425	26438,94
677,612	26457,37
677,798	26117,4
677,985	26713,36
678,172	26578,2
678,358	26287,39
678,545	25808,16
678,731	26293,53
678,918	25892,13
679,104	25672,99
679,291	25793,83
679,477	25531,69
679,664	25677,09
679,85	25326,89
680,036	25650,47
680,223	25486,63
680,409	26029,34
680,596	25144,62
680,782	25435,43
680,968	25759,01
681,155	25302,31
681,341	25437,48
681,527	25111,85
681,714	25625,89
681,9	24931,63
682,086	24655,15
682,272	24792,37
682,459	24902,96
682,645	24831,28
682,831	24507,7
683,017	24493,36
683,204	24902,96
683,39	24319,29
683,576	24554,8
683,762	23985,47
683,948	24333,62
684,134	24147,26
684,32	24051
684,506	23600,45
684,693	23928,13
684,879	22183,26
685,065	21112,17
685,251	19469,7
685,437	18779,53
685,623	17735,07
685,809	16790,95
685,995	16485,81
686,181	17122,73
686,366	17030,57
686,552	16803,24
686,738	17018,28
686,924	17583,52
687,11	17522,08
687,296	17309,09
687,482	17110,44
687,668	16942,5
687,853	17196,45
688,039	17223,08
688,225	17106,34
688,411	17806,75
688,597	17995,16
688,782	17816,99
688,968	17956,25
689,154	18245,01
689,34	18920,84
689,525	18685,33
689,711	18779,53
689,897	19647,87
690,082	19303,81
690,268	19332,48
690,454	18881,93
690,639	19277,19
690,825	19414,4
691,01	19135,88
691,196	18855,31
691,381	19092,87
691,567	18574,74
691,753	18374,03
691,938	18064,79
692,124	18189,72
692,309	18001,3
692,494	17636,77
692,68	17419,68
692,865	17964,44
693,051	17868,19
693,236	17694,11
693,422	18029,98
693,607	18054,55
693,792	18042,26
693,978	17931,67
694,163	18038,17
694,348	18179,48
694,534	18650,51
694,719	18566,54
694,904	18886,03
695,089	19504,51
695,275	19490,18
695,46	19572,1
695,645	19797,37
695,83	19873,15
696,016	19932,54
696,201	19907,96
696,386	19692,93
696,571	20120,95
696,756	19285,38
696,941	19606,91
697,126	18832,78
697,311	19217,8
697,497	18808,2
697,682	18615,69
697,867	18269,59
698,052	18523,54
698,237	18593,17
698,422	18138,52
698,607	17661,34
698,792	17984,92
698,977	17696,16
699,162	17776,03
699,347	17503,65
699,531	17784,22
699,716	17560,99
699,901	17298,85
700,086	17513,89
700,271	17456,54
700,456	17673,63
700,641	17438,11
700,825	17030,57
701,01	17546,65
701,195	17663,39
701,38	17311,14
701,565	17698,2
701,749	18189,72
701,934	18111,89
702,119	18019,74
702,303	17843,61
702,488	18316,69
702,673	18367,89
702,857	18189,72
703,042	18249,11
703,227	18789,77
703,411	18124,18
703,596	18107,8
703,78	17972,63
703,965	18511,25
704,15	17886,62
704,334	17864,09
704,519	17681,82
704,703	17997,21
704,888	18058,65
705,072	17956,25
705,257	18009,5
705,441	18181,53
705,625	19013
705,81	18613,65
705,994	18374,03
706,179	18349,46
706,363	18400,66
706,547	18302,36
706,732	18249,11
706,916	18159
707,1	18451,86
707,285	18249,11
707,469	17894,81
707,653	18507,15
707,837	18210,2
708,022	18247,06
708,206	18038,17
708,39	17794,46
708,574	18394,51
708,759	18054,55
708,943	17587,61
709,127	18288,02
709,311	18283,92
709,495	18023,83
709,679	18144,66
709,863	18163,09
710,047	18292,12
710,231	18181,53
710,415	17927,58
710,6	18183,57
710,784	18279,83
710,968	17927,58
711,152	17952,15
711,336	17956,25
711,519	18058,65
711,703	17675,68
711,887	17806,75
712,071	17761,69
712,255	17552,8
712,439	17757,6
712,623	17712,54
712,807	17739,16
712,991	17483,17
713,174	17089,96
713,358	17147,3
713,542	16967,08
713,726	16862,63
713,91	16766,38
714,093	16524,72
714,277	16547,25
714,461	16477,62
714,645	15470,01
714,828	14988,74
715,012	14460,37
715,196	13829,59
715,379	13012,45
715,563	12389,87
715,747	12152,31
715,93	11634,17
716,114	11384,32
716,297	10946,05
716,481	10794,5
716,664	10597,9
716,848	10081,81
717,031	9840,15
717,215	9567,77
717,398	9674,26
717,582	9281,05
717,765	9240,09
717,949	9035,3
718,132	9133,6
718,316	8773,16
718,499	8715,81
718,682	9270,81
718,866	8914,47
719,049	9031,2
719,233	9842,2
719,416	10706,44
719,599	11212,29
719,782	10991,11
719,966	11412,99
720,149	12078,58
720,332	12465,64
720,515	12645,87
720,699	12484,08
720,882	13041,12
721,065	12807,66
721,248	12375,53
721,431	12082,67
721,615	11857,4
721,798	11709,94
721,981	11093,51
722,164	10675,72
722,347	10892,8
722,53	11111,94
722,713	10343,95
722,896	10413,58
723,079	10368,52
723,262	10116,62
723,445	10106,38
723,628	9539,1
723,811	9967,12
723,994	9952,79
724,177	9809,43
724,36	9506,33
724,543	10034,71
724,726	9866,77
724,909	10124,82
725,091	10378,76
725,274	10198,54
725,457	10198,54
725,64	9915,92
725,823	9752,09
726,006	9899,54
726,188	9627,16
726,371	10030,61
726,554	9877,01
726,737	10432,01
726,919	10452,49
727,102	10284,56
727,285	9756,18
727,467	10124,82
727,65	10012,18
727,833	9813,52
728,015	9762,33
728,198	10184,21
728,38	10276,37
728,563	10286,61
728,746	9950,74
728,928	10186,26
729,111	9989,65
729,293	10032,66
729,476	10133,01
729,658	10421,77
729,841	10403,34
730,023	10335,76
730,205	10442,25
730,388	10763,78
730,57	11447,8
730,753	11421,18
730,935	11410,94
731,117	12434,92
731,3	11855,35
731,482	12039,67
731,664	12203,5
731,847	12951,01
732,029	12951,01
732,211	12772,84
732,394	12875,24
732,576	13284,83
732,758	13463,01
732,94	13174,24
733,122	13192,67
733,305	13546,97
733,487	13080,04
733,669	12991,97
733,851	13098,47
734,033	13274,59
734,215	13153,76
734,397	12871,14
734,58	12856,81
734,762	12828,13
734,944	12944,87
735,126	12467,69
735,308	12692,97
735,49	13004,26
735,672	12846,57
735,854	12875,24
736,036	12983,78
736,218	13551,07
736,399	13329,89
736,581	13202,91
736,763	13067,75
736,945	13567,45
737,127	12934,63
737,309	13026,79
737,491	13030,88
737,672	13258,21
737,854	13303,26
738,036	13065,7
738,218	13032,93
738,4	13141,47
738,581	13501,92
738,763	13016,55
738,945	12699,11
739,127	13237,73
739,308	13635,03
739,49	13344,22
739,672	13518,3
739,853	13563,36
740,035	13350,37
740,216	13395,42
740,398	13164
740,58	13540,83
740,761	13452,77
740,943	13616,6
741,124	13340,13
741,306	13616,6
741,487	13272,54
741,669	13655,51
741,85	13301,22
742,032	13934,04
742,213	13538,78
742,394	13471,2
742,576	13270,5
742,757	14136,79
742,939	14054,87
743,12	13428,19
743,301	13241,82
743,483	13565,4
743,664	13166,05
743,845	13499,87
744,027	13192,67
744,208	13436,38
744,389	13180,39
744,57	12957,16
744,752	13219,3
744,933	13401,57
745,114	13114,85
745,295	13282,78
745,476	13338,08
745,657	13209,06
745,839	13524,44
746,02	13182,43
746,201	13239,78
746,382	13508,06
746,563	13589,98
746,744	12928,49
746,925	12912,1
747,106	13071,84
747,287	13288,93
747,468	12930,53
747,649	12805,61
747,83	13139,43
748,011	13235,68
748,192	13028,84
748,373	12744,17
748,554	12686,83
748,735	13000,16
748,915	12572,14
749,096	12670,44
749,277	13100,51
749,458	13114,85
749,639	13006,31
749,82	12717,54
750	12881,38
750,181	13215,2
750,362	12746,22
750,543	13069,8
750,723	13387,23
750,904	12926,44
751,085	12746,22
751,265	12682,73
751,446	13270,5
751,627	13178,34
751,807	13026,79
751,988	13055,46
752,169	13508,06
752,349	13305,31
752,53	13577,69
752,71	13198,82
752,891	13729,24
753,071	13614,55
753,252	13188,58
753,432	13428,19
753,613	13643,23
753,793	13671,9
753,974	13407,71
754,154	13084,13
754,334	13882,84
754,515	13725,15
754,695	13782,49
754,876	13854,17
755,056	13995,48
755,236	13706,71
755,417	13614,55
755,597	13577,69
755,777	13491,68
755,957	13751,77
756,138	13915,61
756,318	13495,77
756,498	13751,77
756,678	13866,46
756,859	14081,49
757,039	13520,35
757,219	13352,41
757,399	12334,57
757,579	11146,75
757,759	9551,38
757,939	8396,33
758,119	7132,73
758,3	5416,54
758,48	4234,86
758,66	3481,21
758,84	2555,52
759,02	2072,2
759,2	1400,47
759,38	1654,42
759,56	2176,65
759,74	2363,01
759,919	2770,56
760,099	3825,26
760,279	4197,99
760,459	4185,71
760,639	4025,97
760,819	4220,52
760,999	3688,05
761,178	3542,64
761,358	3221,11
761,538	3362,42
761,718	3171,96
761,898	3075,71
762,077	3204,73
762,257	3567,22
762,437	3909,23
762,616	3800,69
762,796	3950,19
762,976	4628,07
763,155	4916,83
763,335	5086,81
763,515	5424,73
763,694	5996,11
763,874	6241,87
764,053	6561,35
764,233	6827,59
764,413	7468,6
764,592	7781,94
764,772	8240,68
764,951	8381,99
765,131	8865,32
765,31	9195,04
765,489	9895,44
765,669	9653,78
765,848	10294,8
766,028	10266,13
766,207	10210,83
766,386	10612,23
766,566	10866,18
766,745	10921,48
766,924	11288,06
767,104	10991,11
767,283	11091,46
767,462	11521,53
767,642	11312,64
767,821	10849,8
768	10903,04
768,179	11308,54
768,358	11329,02
768,538	10927,62
768,717	11419,13
768,896	11619,83
769,075	11226,62
769,254	10835,46
769,433	11417,08
769,612	11363,84
769,791	10954,24
769,97	10878,47
770,149	11054,59
770,328	10706,44
770,507	10716,68
770,686	10571,27
770,865	10987,01
771,044	10761,73
771,223	10538,51
771,402	10587,66
771,581	10688,01
771,76	10376,72
771,939	10464,78
772,118	10393,1
772,297	10552,84
772,475	10389
772,654	10479,11
772,833	10006,03
773,012	10710,54
773,191	10190,35
773,369	10006,03
773,548	9850,39
773,727	9836,05
773,906	10290,7
774,084	9805,33
774,263	9625,11
774,442	9739,8
774,62	9786,9
774,799	9844,24
774,977	9686,55
775,156	10020,37
775,335	9811,48
775,513	9479,71
775,692	9066,02
775,87	10051,09
776,049	9369,12
776,227	9260,57
776,406	8850,98
776,584	9213,47
776,763	9371,16
776,941	8855,08
777,119	8918,56
777,298	8984,1
777,476	9188,89
777,655	8838,69
777,833	8748,58
778,011	9059,87
778,19	8971,81
778,368	8625,7
778,546	8365,61
778,725	9000,48
778,903	8562,22
779,081	8541,74
779,259	8396,33
779,437	8582,7
779,616	8621,61
779,794	8369,71
779,972	8121,9
780,15	8599,08
780,328	8216,11
780,506	8252,97
780,685	8029,74
780,863	8156,72
781,041	8107,57
781,219	7837,24
781,397	7833,14
781,575	8263,21
781,753	8011,31
781,931	7618,1
782,109	7591,48
782,287	7743,03
782,465	7872,05
782,643	7665,21
782,82	7349,82
782,998	8082,99
783,176	7915,06
783,354	7493,18
783,532	7384,63
783,71	7607,86
783,888	7661,11
784,065	7179,84
784,243	7077,44
784,421	7439,93
784,599	7433,79
784,776	7054,91
784,954	6807,11
785,132	7110,21
785,31	6735,43
785,487	6637,13
785,665	6745,67
785,842	6678,08
786,02	7188,03
786,198	6536,77
786,375	6475,34
786,553	6757,96
786,73	6630,98
786,908	6211,15
787,085	6067,79
787,263	6264,4
787,44	6129,23
787,618	5875,28
787,795	5633,62
787,973	5850,71
788,15	5963,34
788,328	5862,99
788,505	5920,34
788,682	6043,21
788,86	5914,19
789,037	5897,81
789,215	5822,03
789,392	5957,2
789,569	6129,23
789,746	5635,67
789,924	5475,93
790,101	6063,69
790,278	5893,71
790,455	5514,84
790,633	5490,26
790,81	5729,88
790,987	5490,26
791,164	5422,68
791,341	5291,61
791,518	5398,1
791,695	5717,59
791,873	5314,14
792,05	5410,39
792,227	5586,52
792,404	5604,95
792,581	5523,03
792,758	5437,02
792,935	5531,22
793,112	5529,17
793,289	5264,99
793,466	5230,17
793,643	5387,86
793,82	5191,26
793,996	5062,24
794,173	4843,1
794,35	4712,03
794,527	5398,1
794,704	4816,48
794,881	4691,56
795,057	5068,38
795,234	4734,56
795,411	4740,71
795,588	4808,29
795,765	5054,05
795,941	5074,53
796,118	5066,33
796,295	5002,85
796,471	5267,03
796,648	4849,25
796,825	4888,16
797,001	4755,04
797,178	5285,47
797,354	5295,71
797,531	4611,68
797,708	4630,12
797,884	5011,04
798,061	4535,91
798,237	4351,59
798,414	4136,56
798,59	4716,13
798,767	4671,08
798,943	4175,47
799,119	4267,63
799,296	4415,08
799,472	4558,44
799,649	4148,84
799,825	4341,35
800,001	4314,73
800,178	4079,21
800,354	4382,31
800,53	4124,27
800,707	4089,45
800,883	4019,82
801,059	4036,21
801,235	4275,82
801,411	4232,81
801,588	3978,86
801,764	4183,66
801,94	3995,25
802,116	4030,06
802,292	3968,62
802,468	4019,82
802,645	3993,2
802,821	4306,54
802,997	4152,94
803,173	3939,95
803,349	4062,83
803,525	4173,42
803,701	4083,31
803,877	3964,53
804,053	4054,64
804,229	4306,54
804,405	4388,46
804,581	3765,87
804,756	4071,02
804,932	4159,08
805,108	4109,93
805,284	3980,91
805,46	3724,91
805,636	4191,85
805,812	4114,03
805,987	3855,98
806,163	3755,63
806,339	7061,05
806,515	3688,05
806,69	3694,19
806,866	3657,33
807,042	3985,01
807,217	3792,5
807,393	3688,05
807,569	3436,15
807,744	4038,25
807,92	3952,24
808,096	3290,74
808,271	3423,86
808,447	3667,57
808,622	3339,9
808,798	3247,74
808,973	3102,33
809,149	3518,07
809,324	3395,19
809,5	3100,28
809,675	3006,08
809,851	3296,89
810,026	3235,45
810,201	3065,47
810,377	2930,3
810,552	3036,8
810,728	3051,13
810,903	2750,08
811,078	2686,59
811,253	2907,77
811,429	2481,8
811,604	2180,75
811,779	2322,06
811,955	2530,95
812,13	2326,15
812,305	2244,23
812,48	2139,79
812,655	2635,39
812,83	2524,8
813,006	1990,28
813,181	1842,83
813,356	2031,24
813,531	1947,28
813,706	1810,06
813,881	1828,49
814,056	2045,58
814,231	2174,6
814,406	1689,23
814,581	1506,96
814,756	1955,47
814,931	1744,53
815,106	1611,41
815,281	1791,63
815,456	2250,38
815,631	2025,1
815,805	1756,82
815,98	1578,64
816,155	1748,62
816,33	1865,36
816,505	1527,44
816,68	1562,26
816,854	1633,94
817,029	1828,49
817,204	1719,95
817,379	1615,51
817,553	2129,55
817,728	1801,87
817,903	1564,31
818,077	1638,03
818,252	2074,25
818,427	2209,42
818,601	1980,04
818,776	2145,93
818,95	2219,66
819,125	2604,67
819,299	2133,64
819,474	2117,26
819,648	2180,75
819,823	2539,14
819,997	2023,05
820,172	1740,43
820,346	2133,64
820,521	1922,7
820,695	1433,24
820,87	1289,88
821,044	1232,54
821,218	1322,65
821,393	1291,93
821,567	1121,95
821,741	1509,01
821,916	1611,41
822,09	1687,18
822,264	1638,03
822,438	1826,45
822,613	1889,93
822,787	1967,76
822,961	1920,65
823,135	2383,49
823,309	2266,76
823,483	1830,54
823,658	1861,26
823,832	2277
824,006	1638,03
824,18	1711,76
824,354	1668,75
824,528	2049,68
824,702	2252,42
824,876	1881,74
825,05	1971,85
825,224	2117,26
825,398	1973,9
825,572	1599,12
825,746	1459,86
825,92	1994,38
826,093	1547,92
826,267	1705,62
826,441	1429,14
826,615	1928,85
826,789	1848,97
826,963	1547,92
827,136	1562,26
827,31	1687,18
827,484	1521,3
827,658	1433,24
827,831	1355,41
828,005	1711,76
828,179	1642,13
828,353	1529,49
828,526	1597,07
828,7	1857,17
828,873	1578,64
829,047	1574,55
829,221	1437,33
829,394	1633,94
829,568	1777,3
829,741	1496,72
829,915	1281,69
830,088	1842,83
830,262	2018,96
830,435	1386,13
830,609	1500,82
830,782	1773,2
830,956	1855,12
831,129	1658,51
831,302	1439,38
831,476	1631,89
831,649	1423
831,822	1445,52
831,996	1433,24
832,169	1934,99
832,342	1515,16
832,516	1410,71
832,689	1455,76
832,862	2006,67
833,035	2145,93
833,209	1820,3
833,382	1621,65
833,555	1590,93
833,728	1644,18
833,901	1392,28
834,074	1496,72
834,247	1760,91
834,42	1805,97
834,594	1453,72
834,767	1517,2
834,94	1930,89
835,113	1957,52
835,286	1537,68
835,459	1625,75
835,632	1691,28
835,805	1668,75
835,977	1453,72
836,15	1582,74
836,323	1635,99
836,496	1863,31
836,669	1496,72
836,842	1513,11
837,015	1943,18
837,188	1697,42
837,36	1560,21
837,533	1504,92
837,706	1750,67
837,879	1896,08
838,051	1306,26
838,224	1457,81
838,397	1564,31
838,569	1713,81
838,742	1371,8
838,915	1302,17
839,087	1779,34
839,26	1826,45
839,433	1472,15
839,605	1560,21
839,778	1167
839,95	1674,9
840,123	1443,48
840,295	1441,43
840,468	1367,7
840,64	1535,64
840,813	1351,32
840,985	1484,44
841,158	1687,18
841,33	1601,17
841,502	1308,31
841,675	1250,97
841,847	1715,86
842,019	1588,88
842,192	1269,4
842,364	1308,31
842,536	1592,98
842,709	1529,49
842,881	1255,06
843,053	1293,97
843,225	1468,05
843,398	1738,38
843,57	1408,66
843,742	1228,44
843,914	1590,93
844,086	1848,97
844,258	1105,56
844,43	1234,58
844,602	1781,39
844,775	1420,95
844,947	1187,48
845,119	1138,33
845,291	1717,9
845,463	1771,15
845,635	1156,76
845,807	1195,67
845,979	1525,4
846,15	1449,62
846,322	1048,22
846,494	1107,61
846,666	1253,02
846,838	1439,38
847,01	1119,9
847,182	1119,9
847,354	1404,57
847,525	1369,75
847,697	1128,09
847,869	933,53
848,041	1250,97
848,212	1439,38
848,384	906,91
848,556	1031,83
848,727	1359,51
848,899	1072,79
849,071	1064,6
849,242	992,92
849,414	1457,81
849,585	1273,5
849,757	892,57
849,929	1085,08
850,1	992,92
850,272	1425,04
850,443	1029,79
850,615	1070,75
850,786	1255,06
850,958	1099,42
851,129	997,02
851,3	962,2
851,472	1326,74
851,643	1089,18
851,815	874,14
851,986	865,95
852,157	1179,29
852,329	1289,88
852,5	622,24
852,671	929,44
852,842	990,88
853,014	892,57
853,185	679,58
853,356	700,06
853,527	1134,23
853,698	1236,63
853,87	915,1
854,041	997,02
854,212	1083,03
854,383	1056,41
854,554	736,93
854,725	806,56
854,896	1048,22
855,067	1019,55
855,238	777,89
855,409	849,57
855,58	917,15
855,751	1285,78
855,922	800,41
856,093	1570,45
856,264	761,5
856,435	956,06
856,606	689,82
856,777	757,41
856,948	966,3
857,118	882,33
857,289	745,12
857,46	970,4
857,631	1023,64
857,802	1009,31
857,972	743,07
858,143	771,74
858,314	792,22
858,484	734,88
858,655	603,81
858,826	646,82
858,996	980,64
859,167	1195,67
859,338	491,17
859,508	648,86
859,679	908,96
859,849	827,04
860,02	538,27
860,19	603,81
860,361	1037,98
860,531	816,8
860,702	636,58
860,872	655,01
861,043	693,92
861,213	1023,64
861,384	589,47
861,554	593,57
861,724	489,12
861,895	786,08
862,065	759,46
862,235	583,33
862,406	904,86
862,576	679,58
862,746	511,65
862,916	591,52
863,087	1054,36
863,257	732,83
863,427	370,34
863,597	442,02
863,767	859,81
863,937	435,88
864,108	505,51
864,278	423,59
864,448	906,91
864,618	716,45
864,788	310,95
864,958	439,97
865,128	579,23
865,298	605,86
865,468	341,67
865,638	292,52
865,808	722,59
865,978	997,02
866,148	372,39
866,318	384,68
866,487	800,41
866,657	636,58
866,827	509,6
866,997	216,74
867,167	818,85
867,337	779,93
867,506	370,34
867,676	444,07
867,846	573,09
868,016	777,89
868,185	233,13
868,355	401,06
868,525	761,5
868,694	573,09
868,864	345,77
869,034	464,55
869,203	544,42
869,373	642,72
869,542	341,67
869,712	341,67
869,881	677,54
870,051	497,32
870,22	237,22
870,39	360,1
870,559	566,95
870,729	206,5
870,898	362,15
871,068	298,66
871,237	405,16
871,406	405,16
871,576	394,92
871,745	317,09
871,914	482,98
872,084	487,08
872,253	360,1
872,422	265,89
872,591	683,68
872,761	300,71
872,93	491,17
873,099	321,19
873,268	472,74
873,437	206,5
873,607	122,54
873,776	274,09
873,945	507,55
874,114	319,14
874,283	237,22
874,452	308,9
874,621	458,4
874,79	638,62
874,959	202,41
875,128	237,22
875,297	450,21
875,466	626,34
875,635	165,54
875,804	161,45
875,973	216,74
876,142	642,72
876,31	153,26
876,479	233,13
876,648	523,94
876,817	241,32
876,986	169,64
877,155	302,76
877,323	274,09
877,492	601,76
877,661	200,36
877,829	329,38
877,998	343,72
878,167	474,79
878,335	134,82
878,504	65,19
878,673	216,74
878,841	153,26
879,01	186,02
879,178	128,68
879,347	409,25
879,515	523,94
879,684	259,75
879,852	110,25
880,021	300,71
880,189	358,05
880,358	134,82
880,526	396,96
880,695	102,06
880,863	501,41
881,031	18,09
881,2	87,72
881,368	143,02
881,536	718,5
881,705	22,19
881,873	59,05
882,041	452,26
882,21	286,37
882,378	102,06
882,546	130,73
882,714	356,01
882,882	143,02
883,05	290,47
883,219	128,68
883,387	181,93
883,555	179,88
883,723	1,71
883,891	77,48
884,059	188,07
884,227	433,83
884,395	7,85
884,563	130,73
884,731	374,44
884,899	558,75
885,067	73,39
885,235	71,34
885,403	388,77
885,571	466,6
885,739	-49,49
