Data from LED  kaltweiss_USB4F035431__0__13-00-37-130.txt Node

Date: Tue Feb 02 13:00:37 CET 2021
User: Praktikum
Spectrometer: USB4F03543
Trigger mode: 4
Integration Time (sec): 4,000000E-1
Scans to average: 1
Electric dark correction enabled: true
Nonlinearity correction enabled: false
Boxcar width: 0
XAxis mode: Wavelengths
Number of Pixels in Spectrum: 3648
>>>>>Begin Spectral Data<<<<<
179,969	-648,18
180,181	-648,18
180,394	-648,18
180,606	-601,08
180,819	-646,13
181,031	222,2
181,243	326,65
181,456	-214,01
181,668	-115,71
181,88	216,06
182,093	103,42
182,305	-287,74
182,518	-220,16
182,73	291,84
182,942	160,77
183,155	-297,98
183,367	-185,34
183,579	144,38
183,791	275,45
184,004	-199,68
184,216	-152,57
184,428	70,65
184,641	72,7
184,853	-183,29
185,065	-240,64
185,277	95,23
185,49	236,54
185,702	-220,16
185,914	-269,31
186,126	52,22
186,338	175,1
186,551	-246,78
186,763	-168,96
186,975	-58,37
187,187	154,62
187,399	-236,54
187,612	-189,44
187,824	68,61
188,036	97,28
188,248	-123,9
188,46	-216,06
188,672	191,49
188,885	-27,65
189,097	-189,44
189,309	-271,36
189,521	80,89
189,733	193,53
189,945	-181,25
190,157	-101,37
190,369	3,07
190,581	68,61
190,794	-138,24
191,006	-177,15
191,218	-13,31
191,43	142,33
191,642	-242,68
191,854	-183,29
192,066	357,37
192,278	105,47
192,49	-220,16
192,702	-146,43
192,914	173,05
193,126	101,37
193,338	-181,25
193,55	-228,35
193,762	191,49
193,974	-101,37
194,186	-330,75
194,398	-78,85
194,61	103,42
194,822	115,71
195,034	-171,01
195,246	-1,02
195,457	191,49
195,669	365,56
195,881	-222,2
196,093	-209,92
196,305	185,34
196,517	-162,81
196,729	-142,33
196,941	-263,16
197,153	277,5
197,365	353,27
197,576	-267,26
197,788	-218,11
198	232,44
198,212	322,56
198,424	-220,16
198,636	-265,21
198,847	-54,27
199,059	142,33
199,271	-287,74
199,483	-177,15
199,695	101,37
199,906	195,58
200,118	-242,68
200,33	-201,72
200,542	971,76
200,753	-54,27
200,965	-228,35
201,177	-187,39
201,389	113,66
201,6	-109,57
201,812	-158,72
202,024	-140,29
202,235	54,27
202,447	273,4
202,659	-205,82
202,871	-168,96
203,082	89,09
203,294	5,12
203,506	-238,59
203,717	-44,03
203,929	171,01
204,141	-60,42
204,352	-185,34
204,564	-306,17
204,775	37,89
204,987	328,7
205,199	-173,05
205,41	-142,33
205,622	275,45
205,833	76,8
206,045	-132,09
206,257	-224,25
206,468	23,55
206,68	-82,94
206,891	-158,72
207,103	-179,2
207,314	-162,81
207,526	177,15
207,737	-236,54
207,949	-68,61
208,16	142,33
208,372	191,49
208,583	-236,54
208,795	-211,96
209,006	7,17
209,218	164,86
209,429	-195,58
209,641	-152,57
209,852	13,31
210,064	222,2
210,275	-189,44
210,487	-152,57
210,698	224,25
210,909	211,96
211,121	-158,72
211,332	-99,33
211,544	238,59
211,755	209,92
211,966	-70,65
212,178	-168,96
212,389	484,34
212,6	29,7
212,812	93,18
213,023	-152,57
213,234	291,84
213,446	121,85
213,657	-322,56
213,868	-224,25
214,08	482,3
214,291	226,3
214,502	-166,91
214,714	-283,64
214,925	115,71
215,136	31,74
215,347	-128
215,559	-254,97
215,77	1,02
215,981	293,88
216,192	-261,12
216,404	-156,67
216,615	273,4
216,826	257,02
217,037	-166,91
217,249	-82,94
217,46	414,71
217,671	54,27
217,882	-238,59
218,093	-205,82
218,304	150,53
218,516	220,16
218,727	-293,88
218,938	-183,29
219,149	506,87
219,36	142,33
219,571	-257,02
219,782	-240,64
219,993	375,8
220,205	17,41
220,416	-56,32
220,627	-119,81
220,838	252,92
221,049	543,74
221,26	-232,44
221,471	-218,11
221,682	166,91
221,893	295,93
222,104	-222,2
222,315	-295,93
222,526	3,07
222,737	37,89
222,948	-267,26
223,159	-123,9
223,37	148,48
223,581	1,02
223,792	-265,21
224,003	-136,19
224,214	-50,18
224,425	191,49
224,636	-252,92
224,847	-91,13
225,058	74,75
225,269	140,29
225,48	-291,84
225,691	-261,12
225,902	236,54
226,112	11,26
226,323	-340,99
226,534	-183,29
226,745	74,75
226,956	31,74
227,167	-158,72
227,378	-152,57
227,589	-97,28
227,799	379,9
228,01	-205,82
228,221	-254,97
228,432	91,13
228,643	-158,72
228,853	-244,73
229,064	-154,62
229,275	70,65
229,486	48,13
229,697	-183,29
229,907	-128
230,118	87,04
230,329	58,37
230,54	-240,64
230,75	-64,51
230,961	267,26
231,172	101,37
231,383	-195,58
231,593	-254,97
231,804	-33,79
232,015	121,85
232,225	-222,2
232,436	-175,1
232,647	185,34
232,857	177,15
233,068	-185,34
233,279	-82,94
233,489	105,47
233,7	146,43
233,91	-91,13
234,121	-234,49
234,332	91,13
234,542	84,99
234,753	-201,72
234,964	-111,61
235,174	89,09
235,385	222,2
235,595	-168,96
235,806	-50,18
236,016	-13,31
236,227	-58,37
236,437	-220,16
236,648	-234,49
236,858	82,94
237,069	-50,18
237,279	-246,78
237,49	-287,74
237,7	175,1
237,911	52,22
238,121	-265,21
238,332	-132,09
238,542	113,66
238,753	101,37
238,963	-191,49
239,174	-193,53
239,384	46,08
239,595	72,7
239,805	-152,57
240,015	-240,64
240,226	113,66
240,436	119,81
240,647	-244,73
240,857	-252,92
241,067	166,91
241,278	693,24
241,488	-228,35
241,698	-68,61
241,909	60,42
242,119	140,29
242,329	-185,34
242,54	-168,96
242,75	87,04
242,96	-123,9
243,171	-119,81
243,381	-181,25
243,591	7,17
243,801	240,64
244,012	-35,84
244,222	-216,06
244,432	-156,67
244,642	-37,89
244,853	-234,49
245,063	-179,2
245,273	214,01
245,483	123,9
245,694	-150,53
245,904	-109,57
246,114	263,16
246,324	-54,27
246,534	-168,96
246,744	-199,68
246,955	-285,69
247,165	328,7
247,375	97,28
247,585	-123,9
247,795	173,05
248,005	156,67
248,215	-121,85
248,425	-62,46
248,636	611,32
248,846	-50,18
249,056	-191,49
249,266	-191,49
249,476	66,56
249,686	107,52
249,896	-246,78
250,106	-121,85
250,316	70,65
250,526	449,53
250,736	-275,45
250,946	11,26
251,156	320,51
251,366	-29,7
251,576	-146,43
251,786	-125,95
251,996	-33,79
252,206	-27,65
252,416	-232,44
252,626	-224,25
252,836	-121,85
253,046	158,72
253,256	-95,23
253,466	-148,48
253,676	89,09
253,885	156,67
254,095	-218,11
254,305	-148,48
254,515	154,62
254,725	62,46
254,935	-175,1
255,145	-136,19
255,355	263,16
255,564	89,09
255,774	-160,77
255,984	1,02
256,194	117,76
256,404	29,7
256,614	-187,39
256,823	-123,9
257,033	7,17
257,243	205,82
257,453	-310,27
257,662	-209,92
257,872	246,78
258,082	121,85
258,292	-236,54
258,501	-125,95
258,711	685,05
258,921	449,53
259,131	-351,23
259,34	-238,59
259,55	84,99
259,76	-29,7
259,969	-181,25
260,179	-107,52
260,389	132,09
260,598	367,61
260,808	-123,9
261,018	-195,58
261,227	318,46
261,437	19,46
261,647	-152,57
261,856	-353,27
262,066	252,92
262,275	379,9
262,485	-246,78
262,694	-13,31
262,904	125,95
263,114	310,27
263,323	-214,01
263,533	-197,63
263,742	70,65
263,952	171,01
264,161	-267,26
264,371	-224,25
264,58	115,71
264,79	27,65
264,999	-82,94
265,209	-254,97
265,418	214,01
265,628	58,37
265,837	-230,4
266,047	-185,34
266,256	312,32
266,466	31,74
266,675	-240,64
266,884	-171,01
267,094	179,2
267,303	318,46
267,513	-173,05
267,722	23,55
267,931	203,77
268,141	-50,18
268,35	-166,91
268,559	-179,2
268,769	54,27
268,978	-156,67
269,187	-201,72
269,397	-158,72
269,606	-80,89
269,815	-60,42
270,025	-99,33
270,234	-148,48
270,443	-109,57
270,653	99,33
270,862	-175,1
271,071	-166,91
271,28	-66,56
271,49	140,29
271,699	-140,29
271,908	-48,13
272,117	123,9
272,327	23,55
272,536	-340,99
272,745	-158,72
272,954	-15,36
273,163	142,33
273,372	209,92
273,582	-136,19
273,791	181,25
274	-58,37
274,209	-60,42
274,418	39,94
274,627	259,07
274,836	-11,26
275,046	-1,02
275,255	-46,08
275,464	19,46
275,673	-35,84
275,882	48,13
276,091	-148,48
276,3	226,3
276,509	31,74
276,718	31,74
276,927	-50,18
277,136	189,44
277,345	130,05
277,554	21,5
277,763	105,47
277,972	179,2
278,181	138,24
278,39	-60,42
278,599	13,31
278,808	107,52
279,017	121,85
279,226	-166,91
279,435	-3,07
279,644	39,94
279,853	187,39
280,062	310,27
280,271	-115,71
280,48	19,46
280,688	-25,6
280,897	54,27
281,106	-144,38
281,315	-107,52
281,524	175,1
281,733	-21,5
281,942	17,41
282,151	54,27
282,359	195,58
282,568	-121,85
282,777	-27,65
282,986	80,89
283,195	140,29
283,403	25,6
283,612	-160,77
283,821	11,26
284,03	-48,13
284,238	72,7
284,447	54,27
284,656	39,94
284,865	175,1
285,073	-72,7
285,282	-66,56
285,491	3,07
285,699	-78,85
285,908	9,22
286,117	19,46
286,325	56,32
286,534	306,17
286,743	3,07
286,951	3,07
287,16	211,96
287,369	62,46
287,577	-5,12
287,786	-1,02
287,995	54,27
288,203	-123,9
288,412	78,85
288,62	7,17
288,829	68,61
289,037	-7,17
289,246	-37,89
289,455	-119,81
289,663	56,32
289,872	279,55
290,08	39,94
290,289	91,13
290,497	-99,33
290,706	144,38
290,914	-201,72
291,123	-58,37
291,331	78,85
291,54	320,51
291,748	207,87
291,957	7,17
292,165	150,53
292,373	-105,47
292,582	15,36
292,79	64,51
292,999	150,53
293,207	142,33
293,415	-66,56
293,624	-64,51
293,832	52,22
294,041	105,47
294,249	-41,98
294,457	-115,71
294,666	134,14
294,874	-48,13
295,082	21,5
295,291	41,98
295,499	64,51
295,707	76,8
295,915	62,46
296,124	68,61
296,332	97,28
296,54	46,08
296,749	220,16
296,957	-11,26
297,165	52,22
297,373	9,22
297,581	-105,47
297,79	-41,98
297,998	-9,22
298,206	-91,13
298,414	52,22
298,622	-9,22
298,831	263,16
299,039	-46,08
299,247	68,61
299,455	48,13
299,663	349,18
299,871	25,6
300,08	-27,65
300,288	-3,07
300,496	103,42
300,704	115,71
300,912	-21,5
301,12	-76,8
301,328	72,7
301,536	-19,46
301,744	-222,2
301,952	-62,46
302,16	-70,65
302,368	-29,7
302,576	27,65
302,784	93,18
302,992	-136,19
303,2	-27,65
303,408	-19,46
303,616	-11,26
303,824	185,34
304,032	181,25
304,24	216,06
304,448	-37,89
304,656	-91,13
304,864	324,6
305,072	52,22
305,28	37,89
305,488	9,22
305,696	89,09
305,904	17,41
306,111	-148,48
306,319	-21,5
306,527	23,55
306,735	89,09
306,943	41,98
307,151	13,31
307,359	-62,46
307,566	-7,17
307,774	193,53
307,982	214,01
308,19	-29,7
308,398	-76,8
308,605	-35,84
308,813	-70,65
309,021	1,02
309,229	181,25
309,436	-115,71
309,644	158,72
309,852	134,14
310,06	46,08
310,267	-87,04
310,475	123,9
310,683	89,09
310,89	64,51
311,098	97,28
311,306	48,13
311,513	195,58
311,721	-37,89
311,929	5,12
312,136	138,24
312,344	21,5
312,552	33,79
312,759	-113,66
312,967	269,31
313,174	156,67
313,382	87,04
313,589	25,6
313,797	224,25
314,005	99,33
314,212	-3,07
314,42	-160,77
314,627	39,94
314,835	-19,46
315,042	33,79
315,25	-160,77
315,457	-78,85
315,665	-201,72
315,872	76,8
316,08	-1,02
316,287	-54,27
316,495	515,06
316,702	-44,03
316,909	-121,85
317,117	171,01
317,324	142,33
317,532	160,77
317,739	-82,94
317,946	58,37
318,154	-121,85
318,361	68,61
318,569	84,99
318,776	-31,74
318,983	-152,57
319,191	5,12
319,398	-15,36
319,605	52,22
319,813	209,92
320,02	-181,25
320,227	166,91
320,434	224,25
320,642	41,98
320,849	-3,07
321,056	21,5
321,264	76,8
321,471	70,65
321,678	39,94
321,885	-140,29
322,092	187,39
322,3	82,94
322,507	-246,78
322,714	46,08
322,921	23,55
323,128	-138,24
323,336	-128
323,543	-5,12
323,75	265,21
323,957	37,89
324,164	113,66
324,371	87,04
324,578	-177,15
324,786	166,91
324,993	-19,46
325,2	-23,55
325,407	-281,6
325,614	97,28
325,821	187,39
326,028	166,91
326,235	150,53
326,442	138,24
326,649	-39,94
326,856	-21,5
327,063	-58,37
327,27	78,85
327,477	5,12
327,684	-132,09
327,891	-66,56
328,098	164,86
328,305	84,99
328,512	-35,84
328,719	191,49
328,926	293,88
329,133	-82,94
329,34	283,64
329,546	125,95
329,753	44,03
329,96	-76,8
330,167	82,94
330,374	25,6
330,581	263,16
330,788	-207,87
330,995	68,61
331,201	54,27
331,408	78,85
331,615	-21,5
331,822	-107,52
332,029	9,22
332,235	105,47
332,442	-82,94
332,649	-99,33
332,856	-54,27
333,062	11,26
333,269	-15,36
333,476	-15,36
333,683	97,28
333,889	37,89
334,096	21,5
334,303	31,74
334,509	-21,5
334,716	156,67
334,923	52,22
335,129	7,17
335,336	80,89
335,543	60,42
335,749	27,65
335,956	119,81
336,163	-76,8
336,369	148,48
336,576	-1,02
336,782	119,81
336,989	-58,37
337,196	35,84
337,402	-54,27
337,609	-128
337,815	60,42
338,022	185,34
338,228	103,42
338,435	271,36
338,641	232,44
338,848	214,01
339,054	166,91
339,261	-74,75
339,467	-105,47
339,674	115,71
339,88	95,23
340,087	-89,09
340,293	-19,46
340,5	82,94
340,706	66,56
340,912	-74,75
341,119	19,46
341,325	-39,94
341,532	-66,56
341,738	-138,24
341,944	214,01
342,151	91,13
342,357	-35,84
342,563	140,29
342,77	13,31
342,976	5,12
343,182	72,7
343,389	35,84
343,595	33,79
343,801	-58,37
344,007	64,51
344,214	-162,81
344,42	19,46
344,626	-74,75
344,832	-119,81
345,039	-82,94
345,245	19,46
345,451	19,46
345,657	44,03
345,864	-134,14
346,07	91,13
346,276	138,24
346,482	191,49
346,688	89,09
346,894	1,02
347,1	136,19
347,307	3,07
347,513	132,09
347,719	39,94
347,925	138,24
348,131	-171,01
348,337	52,22
348,543	-11,26
348,749	-60,42
348,955	146,43
349,161	-121,85
349,367	37,89
349,573	269,31
349,779	101,37
349,985	-27,65
350,191	5,12
350,397	138,24
350,603	97,28
350,809	-74,75
351,015	150,53
351,221	35,84
351,427	150,53
351,633	9,22
351,839	211,96
352,045	134,14
352,251	146,43
352,457	19,46
352,663	150,53
352,869	-54,27
353,075	5,12
353,28	-95,23
353,486	72,7
353,692	17,41
353,898	-109,57
354,104	-52,22
354,31	183,29
354,515	-82,94
354,721	68,61
354,927	-1,02
355,133	166,91
355,339	115,71
355,544	11,26
355,75	146,43
355,956	121,85
356,162	80,89
356,367	-146,43
356,573	113,66
356,779	-27,65
356,984	214,01
357,19	207,87
357,396	54,27
357,602	314,36
357,807	84,99
358,013	-46,08
358,218	93,18
358,424	-3,07
358,63	-125,95
358,835	-35,84
359,041	-70,65
359,247	84,99
359,452	-66,56
359,658	-64,51
359,863	46,08
360,069	115,71
360,274	115,71
360,48	138,24
360,685	39,94
360,891	291,84
361,097	-44,03
361,302	7,17
361,508	181,25
361,713	125,95
361,918	406,52
362,124	23,55
362,329	15,36
362,535	187,39
362,74	72,7
362,946	-44,03
363,151	-70,65
363,357	113,66
363,562	-46,08
363,767	-160,77
363,973	109,57
364,178	56,32
364,383	-31,74
364,589	-15,36
364,794	-162,81
365	201,72
365,205	121,85
365,41	5,12
365,615	70,65
365,821	-58,37
366,026	199,68
366,231	56,32
366,437	189,44
366,642	-138,24
366,847	289,79
367,052	-1,02
367,258	-109,57
367,463	-39,94
367,668	21,5
367,873	138,24
368,078	68,61
368,284	-236,54
368,489	3,07
368,694	-60,42
368,899	3,07
369,104	158,72
369,309	125,95
369,515	-52,22
369,72	164,86
369,925	-25,6
370,13	191,49
370,335	60,42
370,54	13,31
370,745	89,09
370,95	87,04
371,155	91,13
371,36	105,47
371,565	115,71
371,77	152,57
371,975	-72,7
372,18	107,52
372,385	269,31
372,59	144,38
372,795	72,7
373	121,85
373,205	189,44
373,41	162,81
373,615	-70,65
373,82	-226,3
374,025	56,32
374,23	-132,09
374,435	-91,13
374,64	72,7
374,845	216,06
375,05	164,86
375,254	7,17
375,459	-128
375,664	31,74
375,869	31,74
376,074	-117,76
376,279	-138,24
376,483	103,42
376,688	-50,18
376,893	70,65
377,098	-93,18
377,303	199,68
377,507	160,77
377,712	39,94
377,917	115,71
378,122	271,36
378,326	72,7
378,531	-37,89
378,736	-78,85
378,94	5,12
379,145	56,32
379,35	115,71
379,554	-56,32
379,759	-80,89
379,964	162,81
380,168	-44,03
380,373	-87,04
380,578	283,64
380,782	379,9
380,987	119,81
381,191	-76,8
381,396	128
381,601	144,38
381,805	29,7
382,01	263,16
382,214	168,96
382,419	119,81
382,623	23,55
382,828	68,61
383,032	13,31
383,237	-207,87
383,441	-125,95
383,646	191,49
383,85	-82,94
384,055	44,03
384,259	33,79
384,464	-162,81
384,668	64,51
384,872	39,94
385,077	7,17
385,281	29,7
385,486	-9,22
385,69	103,42
385,894	113,66
386,099	144,38
386,303	87,04
386,507	183,29
386,712	156,67
386,916	-66,56
387,12	-21,5
387,325	279,55
387,529	72,7
387,733	97,28
387,937	3,07
388,142	-9,22
388,346	-99,33
388,55	44,03
388,754	97,28
388,959	39,94
389,163	62,46
389,367	-23,55
389,571	-70,65
389,775	261,12
389,98	-7,17
390,184	113,66
390,388	3,07
390,592	234,49
390,796	54,27
391	15,36
391,204	117,76
391,409	68,61
391,613	-3,07
391,817	-87,04
392,021	281,6
392,225	54,27
392,429	-1,02
392,633	46,08
392,837	-23,55
393,041	146,43
393,245	72,7
393,449	-113,66
393,653	103,42
393,857	220,16
394,061	109,57
394,265	56,32
394,469	64,51
394,673	216,06
394,877	236,54
395,081	107,52
395,285	363,51
395,489	148,48
395,693	7,17
395,896	56,32
396,1	195,58
396,304	207,87
396,508	-60,42
396,712	19,46
396,916	95,23
397,12	128
397,323	80,89
397,527	31,74
397,731	312,32
397,935	203,77
398,139	64,51
398,342	201,72
398,546	242,68
398,75	95,23
398,954	121,85
399,157	220,16
399,361	310,27
399,565	-80,89
399,769	171,01
399,972	130,05
400,176	91,13
400,38	121,85
400,583	-1,02
400,787	209,92
400,991	257,02
401,194	199,68
401,398	158,72
401,601	87,04
401,805	326,65
402,009	285,69
402,212	97,28
402,416	383,99
402,619	44,03
402,823	367,61
403,026	17,41
403,23	37,89
403,433	496,63
403,637	168,96
403,841	160,77
404,044	164,86
404,247	209,92
404,451	185,34
404,654	226,3
404,858	185,34
405,061	187,39
405,265	183,29
405,468	222,2
405,672	80,89
405,875	365,56
406,078	158,72
406,282	160,77
406,485	3,07
406,689	361,47
406,892	478,2
407,095	109,57
407,299	156,67
407,502	449,53
407,705	74,75
407,909	191,49
408,112	214,01
408,315	431,1
408,518	582,65
408,722	179,2
408,925	205,82
409,128	551,93
409,331	457,72
409,535	375,8
409,738	207,87
409,941	769,01
410,144	420,86
410,347	496,63
410,551	424,95
410,754	396,28
410,957	496,63
411,16	248,83
411,363	482,3
411,566	549,88
411,769	560,12
411,973	365,56
412,176	515,06
412,379	793,59
412,582	750,58
412,785	631,8
412,988	371,71
413,191	730,1
413,394	629,75
413,597	388,09
413,8	480,25
414,003	914,42
414,206	576,5
414,409	726
414,612	601,08
414,815	785,4
415,018	775,16
415,221	771,06
415,424	891,89
415,627	951,28
415,83	941,04
416,033	949,23
416,235	814,07
416,438	1158,13
416,641	1178,61
416,844	938,99
417,047	855,03
417,25	957,43
417,453	1233,9
417,655	1108,98
417,858	1192,94
418,061	1092,59
418,264	1211,37
418,467	1215,47
418,669	1254,38
418,872	1575,91
419,075	1367,02
419,278	1387,5
419,48	1592,3
419,683	1524,71
419,886	1444,84
420,089	1661,93
420,291	1620,97
420,494	1702,89
420,697	1778,66
420,899	1909,73
421,102	1620,97
421,305	2147,3
421,507	2020,32
421,71	2087,9
421,912	2118,62
422,115	2167,77
422,318	2413,53
422,52	2507,74
422,723	2370,52
422,925	2829,27
423,128	2724,82
423,33	2485,21
423,533	2554,84
423,735	2984,91
423,938	3046,35
424,14	2941,91
424,343	3017,68
424,545	3494,86
424,748	3224,53
424,95	3363,79
425,153	3533,77
425,355	3726,28
425,558	4025,28
425,76	3730,38
425,962	3849,16
426,165	3939,27
426,367	4477,88
426,57	4430,78
426,772	4426,68
426,974	4699,06
427,177	4481,98
427,379	4737,98
427,581	5071,79
427,784	5309,36
427,986	4996,02
428,188	5362,61
428,39	5653,42
428,593	5630,89
428,795	6472,61
428,997	6204,32
429,2	6036,39
429,402	6642,59
429,604	6634,39
429,806	6532
430,008	7089,04
430,211	7279,5
430,413	7242,64
430,615	7295,89
430,817	8057,73
431,019	8137,6
431,221	8262,53
431,423	8182,66
431,626	8336,26
431,828	8661,88
432,03	8745,85
432,232	9016,18
432,434	9513,84
432,636	9833,32
432,838	9583,47
433,04	10163,04
433,242	10423,14
433,444	10351,46
433,646	10783,58
433,848	10871,64
434,05	11361,11
434,252	11479,89
434,454	11506,51
434,656	11918,15
434,858	12419,91
435,06	12553,02
435,262	12737,34
435,464	13538,1
435,666	13988,65
435,868	13548,34
436,07	14420,77
436,271	15125,27
436,473	14689,06
436,675	15475,48
436,877	15209,24
437,079	15016,73
437,281	15944,46
437,482	16560,9
437,684	17068,8
437,886	16691,97
438,088	16632,58
438,29	17109,75
438,491	18100,97
438,693	17496,82
438,895	18705,12
439,097	20478,66
439,298	19376,86
439,5	19600,08
439,702	19860,18
439,903	19931,86
440,105	21347
440,307	22160,05
440,508	22237,87
440,71	23243,42
440,912	23050,91
441,113	22504,1
441,315	23282,33
441,517	24425,1
441,718	25111,17
441,92	25164,42
442,121	24789,64
442,323	26518,12
442,524	26585,71
442,726	27322,98
442,928	27152,99
443,129	28697,16
443,331	27589,21
443,532	28830,28
443,734	29424,19
443,935	31130,15
444,136	29366,85
444,338	31797,79
444,539	32240,15
444,741	32643,6
444,942	32324,11
445,144	33335,81
445,345	34642,42
445,546	34843,12
445,748	34468,34
445,949	34079,22
446,151	35338,72
446,352	36645,33
446,553	36712,91
446,755	35959,26
446,956	38412,73
447,157	38805,94
447,359	38658,48
447,56	39008,68
447,761	40030,62
447,962	40878,48
448,164	41798,02
448,365	39240,11
448,566	41109,9
448,767	40616,34
448,969	42885,49
449,17	42090,88
449,371	40843,66
449,572	43014,51
449,773	42920,31
449,974	43266,41
450,176	43106,67
450,377	44820,82
450,578	44579,16
450,779	42582,39
450,98	41365,9
451,181	42889,59
451,382	42807,67
451,583	43495,78
451,784	43172,21
451,986	46393,66
452,187	42545,53
452,388	42152,32
452,589	40827,28
452,79	43903,33
452,991	40884,62
453,192	43125,1
453,393	42193,28
453,594	44128,61
453,795	41161,1
453,995	40235,42
454,196	40079,77
454,397	41216,4
454,598	39713,19
454,799	40446,36
455	40102,3
455,201	39223,72
455,402	39463,33
455,603	37593,54
455,804	39834,02
456,004	39786,91
456,205	37065,16
456,406	36192,73
456,607	36086,23
456,808	36186,58
457,008	34245,11
457,209	34099,7
457,41	36786,64
457,611	34265,59
457,811	34204,15
458,012	34183,67
458,213	34107,9
458,414	32418,32
458,614	32305,68
458,815	31738,4
459,016	31648,29
459,216	31879,71
459,417	31324,71
459,618	30759,47
459,818	30226,99
460,019	29018,69
460,22	29160
460,42	29153,86
460,621	27406,94
460,821	28256,85
461,022	28013,14
461,223	26460,78
461,423	26684,01
461,624	26524,27
461,824	27187,81
462,025	25408,12
462,225	25883,25
462,426	26921,57
462,626	25531
462,827	24779,4
463,027	24470,15
463,228	24959,62
463,428	23927,44
463,628	23906,96
463,829	24443,53
464,029	23128,74
464,23	23380,64
464,43	22872,74
464,63	22440,62
464,831	22549,16
465,031	22600,36
465,231	22454,95
465,432	22442,67
465,632	22528,68
465,832	20843,2
466,033	21754,55
466,233	21064,38
466,433	20763,33
466,634	21152,45
466,834	21361,34
467,034	20011,73
467,234	21385,91
467,435	20318,92
467,635	20505,29
467,835	19065,57
468,035	19835,6
468,235	19006,17
468,436	19327,71
468,636	18889,44
468,836	18754,27
469,036	19620,56
469,236	18504,42
469,436	18100,97
469,636	18848,48
469,836	18000,62
470,037	18111,21
470,237	17660,66
470,437	17984,24
470,637	17261,3
470,837	17486,58
471,037	17124,09
471,237	17578,74
471,437	17302,26
471,637	17038,08
471,837	17193,72
472,037	16362,25
472,237	16585,47
472,437	16579,33
472,637	16732,93
472,837	16411,4
473,036	15901,45
473,236	15794,96
473,436	15563,54
473,636	15661,84
473,836	15332,12
474,036	15565,59
474,236	15385,37
474,436	15559,44
474,635	15266,58
474,835	14877,47
475,035	15498
475,235	15850,25
475,435	15407,89
475,634	14816,03
475,834	15450,9
476,034	15391,51
476,234	15090,46
476,433	14816,03
476,633	14865,18
476,833	15026,97
477,033	14625,57
477,232	14873,37
477,432	14369,57
477,632	14912,28
477,831	14527,27
478,031	14328,61
478,231	14512,93
478,43	14332,71
478,63	14347,05
478,829	13990,7
479,029	14230,31
479,229	14312,23
479,428	14175,02
479,628	14375,72
479,827	14177,06
480,027	13873,96
480,226	14641,95
480,426	14285,61
480,625	13564,72
480,825	14590,75
481,024	14175,02
481,224	14279,46
481,423	13740,85
481,623	14369,57
481,822	13740,85
482,021	14084,91
482,221	14117,67
482,42	14138,15
482,62	14205,74
482,819	13894,44
483,018	13941,55
483,218	13566,77
483,417	13865,77
483,616	13734,7
483,816	13998,89
484,015	14023,47
484,214	13804,33
484,414	13857,58
484,613	13540,15
484,812	13636,4
485,011	13900,59
485,211	13957,93
485,41	13876,01
485,609	13742,89
485,808	13560,63
486,008	13738,8
486,207	13611,82
486,406	13706,03
486,605	13519,67
486,804	13380,4
487,003	13624,11
487,203	13990,7
487,402	13814,57
487,601	13523,76
487,8	13519,67
487,999	13632,3
488,198	14013,23
488,397	13853,48
488,596	13654,83
488,795	13529,91
488,994	14134,06
489,193	13511,47
489,392	14224,17
489,591	13890,35
489,79	13937,45
489,989	13978,41
490,188	13933,36
490,387	14183,21
490,586	13849,39
490,785	14277,41
490,984	14045,99
491,183	14412,58
491,382	14316,33
491,581	14222,12
491,779	14445,35
491,978	14406,44
492,177	14773,02
492,376	14504,74
492,575	14525,22
492,774	14711,58
492,972	14689,06
493,171	14859,04
493,37	14818,08
493,569	15287,06
493,768	15411,99
493,966	15399,7
494,165	15262,49
494,364	15825,68
494,563	15629,07
494,761	15790,86
494,96	15608,59
495,159	16147,21
495,357	15667,98
495,556	16288,52
495,755	15756,05
495,953	16167,69
496,152	16020,24
496,35	16356,1
496,549	16655,11
496,748	17074,94
496,946	16978,68
497,145	17017,6
497,343	17005,31
497,542	16976,64
497,74	17550,07
497,939	17752,82
498,137	17732,34
498,336	17859,31
498,534	17777,39
498,733	17894,13
498,931	18182,89
499,13	18367,21
499,328	18402,02
499,527	19075,8
499,725	18580,2
499,924	18979,55
500,122	18760,42
500,32	19389,14
500,519	19557,08
500,717	19808,98
500,915	20144,84
501,114	20140,75
501,312	20150,99
501,51	20466,38
501,709	20595,4
501,907	20957,89
502,105	20738,76
502,304	21381,82
502,502	21199,55
502,7	21248,7
502,898	21508,79
503,097	22250,16
503,295	22221,48
503,493	22284,97
503,691	22708,9
503,889	22569,64
504,088	22848,16
504,286	23104,16
504,484	23378,59
504,682	23870,1
504,88	23909,01
505,078	24568,46
505,276	24357,52
505,474	24717,96
505,672	24398,48
505,871	25297,53
506,069	25186,94
506,267	25461,37
506,465	25729,66
506,663	25588,35
506,861	26131,06
507,059	26366,57
507,257	26374,77
507,455	26903,14
507,653	26819,17
507,851	27462,24
508,049	27388,51
508,246	28068,44
508,444	27963,99
508,642	28623,44
508,84	28869,19
509,038	28809,8
509,236	29002,31
509,434	29151,81
509,632	29698,62
509,829	30071,35
510,027	29610,56
510,225	30517,81
510,423	30695,98
510,621	30589,49
510,818	31545,89
511,016	31486,5
511,214	31779,36
511,412	32518,67
511,609	32127,51
511,807	32934,41
512,005	32879,11
512,203	33339,91
512,4	33698,3
512,598	34136,57
512,796	34003,45
512,993	34464,24
513,191	35017,19
513,389	35037,67
513,586	35979,74
513,784	35733,98
513,981	35942,88
514,179	36684,24
514,377	36553,17
514,574	37009,87
514,772	37083,59
514,969	37996,99
515,167	37777,86
515,364	37939,65
515,562	38742,45
515,759	39424,42
515,957	38590,9
516,154	39207,34
516,352	39594,4
516,549	39985,57
516,746	40202,65
516,944	40591,76
517,141	40546,71
517,339	40933,78
517,536	41843,07
517,733	41054,61
517,931	41742,72
518,128	42506,62
518,325	42936,69
518,523	42805,62
518,72	43094,38
518,917	44159,33
519,115	43880,8
519,312	44282,2
519,509	44663,13
519,707	44861,78
519,904	45050,19
520,101	45900,1
520,298	46137,66
520,495	46428,48
520,693	45955,39
520,89	46401,85
521,087	45826,37
521,284	47698,22
521,481	47286,57
521,678	48234,78
521,876	47952,16
522,073	48492,83
522,27	47950,12
522,467	48271,65
522,664	48812,31
522,861	49398,03
523,058	49094,93
523,255	49254,67
523,452	49893,64
523,649	49510,67
523,846	50022,66
524,043	50538,75
524,24	50444,54
524,437	50569,47
524,634	51001,59
524,831	50893,05
525,028	50968,82
525,225	51419,38
525,422	51058,93
525,619	51335,41
525,816	51097,84
526,013	52879,58
526,209	52273,38
526,406	52003,05
526,603	51966,18
526,8	52318,43
526,997	52289,76
527,194	53541,07
527,39	52838,62
527,587	53362,9
527,784	53141,72
527,981	53518,54
528,177	53668,05
528,374	54198,47
528,571	53678,28
528,768	54157,51
528,964	54167,75
529,161	54366,4
529,358	54694,08
529,554	54194,37
529,751	54409,41
529,948	54526,14
530,144	54354,11
530,341	54694,08
530,537	55009,46
530,734	55900,33
530,931	54945,98
531,127	55263,41
531,324	55769,26
531,52	55648,43
531,717	55908,52
531,913	55597,23
532,11	55943,34
532,306	55793,84
532,503	55785,64
532,699	56109,22
532,896	56338,6
533,092	56053,93
533,289	56395,94
533,485	56619,17
533,682	56762,53
533,878	56969,37
534,074	56275,11
534,271	57032,86
534,467	56041,64
534,664	56813,73
534,86	56567,97
535,056	57073,82
535,253	56699,04
535,449	57641,1
535,645	57344,15
535,841	57163,93
536,038	56860,83
536,234	57237,65
536,43	57768,08
536,626	57823,37
536,823	57501,84
537,019	57970,83
537,215	57706,64
537,411	57702,54
537,607	57854,09
537,804	57594
538	57911,44
538,196	58042,51
538,392	58491,01
538,588	58056,84
538,784	58130,57
538,98	57628,82
539,176	57847,95
539,373	58497,16
539,569	57979,02
539,765	57864,33
539,961	58310,79
540,157	58261,64
540,353	58138,76
540,549	58851,45
540,745	58261,64
540,941	58650,75
541,137	58069,13
541,333	58318,98
541,528	58523,78
541,724	58454,15
541,92	58708,1
542,116	58304,65
542,312	58089,61
542,508	58509,44
542,704	58521,73
542,9	58138,76
543,096	58425,48
543,291	58818,69
543,487	58484,87
543,683	58232,97
543,879	58087,56
544,075	58089,61
544,27	58419,33
544,466	58321,03
544,662	58640,51
544,858	58990,72
545,053	58617,99
545,249	58753,15
545,445	58333,32
545,64	58812,54
545,836	57958,54
546,032	58181,77
546,227	58253,45
546,423	58189,96
546,619	58175,62
546,814	58286,21
547,01	58050,7
547,205	58882,17
547,401	57766,03
547,597	58833,02
547,792	57802,89
547,988	58593,41
548,183	57995,4
548,379	58525,83
548,574	57618,58
548,77	58146,95
548,965	57325,72
549,161	57665,68
549,356	56977,56
549,552	57872,52
549,747	57475,22
549,942	57626,77
550,138	57469,08
550,333	57335,96
550,529	57831,57
550,724	57260,18
550,919	57260,18
551,115	57620,62
551,31	57651,34
551,505	57866,38
551,701	57682,06
551,896	57297,05
552,091	57819,28
552,287	57759,89
552,482	57049,24
552,677	57614,48
552,872	56813,73
553,067	56961,18
553,263	56981,66
553,458	57235,61
553,653	56617,12
553,848	57098,39
554,043	56504,48
554,239	57280,66
554,434	56322,21
554,629	57139,35
554,824	56795,29
555,019	57479,31
555,214	56754,33
555,409	56354,98
555,604	56889,5
555,799	56217,77
555,994	56522,91
556,189	55799,98
556,384	56164,52
556,579	56604,83
556,774	56215,72
556,969	56103,08
557,164	55705,77
557,359	56094,89
557,554	55320,76
557,749	55595,18
557,944	55830,7
558,139	55484,59
558,334	55648,43
558,529	55279,8
558,724	55247,03
558,918	55351,48
559,113	55218,36
559,308	55505,07
559,503	55042,23
559,698	55126,2
559,893	54825,15
560,087	54984,89
560,282	54298,82
560,477	54952,12
560,672	54737,08
560,866	54763,71
561,061	53977,29
561,256	54591,68
561,45	54190,28
561,645	54583,49
561,84	54479,04
562,034	54423,75
562,229	54055,11
562,424	54538,43
562,618	54343,87
562,813	54280,39
563,008	53627,09
563,202	53866,7
563,397	53838,03
563,591	53893,32
563,786	53643,47
563,98	53987,53
564,175	53506,26
564,369	53391,57
564,564	53471,44
564,758	53610,7
564,953	52975,83
565,147	53608,65
565,342	53268,69
565,536	53440,72
565,731	52953,3
565,925	53397,71
566,119	53250,26
566,314	53338,32
566,508	52564,19
566,703	53739,72
566,897	52445,41
567,091	53270,74
567,286	52728,03
567,48	53012,7
567,674	52713,69
567,868	53387,47
568,063	51859,69
568,257	53129,43
568,451	52138,21
568,646	52105,44
568,84	51712,23
569,034	51941,61
569,228	51618,03
569,422	51831,02
569,616	51343,6
569,811	51560,69
570,005	51460,33
570,199	51878,12
570,393	51411,18
570,587	51587,31
570,781	51327,22
570,975	51298,55
571,169	50794,74
571,364	51316,98
571,558	51077,36
571,752	51861,74
571,946	50893,05
572,14	51654,89
572,334	51173,62
572,528	51460,33
572,722	50862,33
572,916	51798,25
573,109	51024,12
573,303	51114,23
573,497	50710,78
573,691	51489,01
573,885	51224,82
574,079	51419,38
574,273	51003,64
574,467	50954,49
574,661	50557,18
574,854	51017,97
575,048	50452,73
575,242	50671,87
575,436	50315,52
575,63	50862,33
575,823	49742,09
576,017	50163,97
576,211	49668,36
576,405	50663,67
576,598	49334,54
576,792	50120,96
576,986	49449,23
577,18	49731,85
577,373	49594,64
577,567	50286,85
577,761	50053,38
577,954	49893,64
578,148	50108,68
578,341	50022,66
578,535	49559,82
578,729	49453,33
578,922	48871,7
579,116	49365,26
579,309	48298,27
579,503	49221,9
579,696	48638,23
579,89	49187,09
580,083	48742,68
580,277	49101,07
580,47	48597,27
580,664	48701,72
580,857	48376,09
581,051	48120,1
581,244	47554,86
581,437	48269,6
581,631	47839,53
581,824	47730,98
582,018	47849,77
582,211	48285,98
582,404	48283,94
582,598	47962,4
582,791	47706,41
582,984	47579,43
583,178	47690,02
583,371	47976,74
583,564	47186,22
583,757	47827,24
583,951	47425,84
584,144	47319,34
584,337	47141,17
584,53	47595,82
584,723	47001,91
584,917	47350,06
585,11	46297,41
585,303	47520,04
585,496	46715,19
585,689	46631,22
585,882	46516,54
586,075	46977,33
586,268	46256,45
586,462	46319,93
586,655	46141,76
586,848	46457,15
587,041	45941,06
587,234	46483,77
587,427	45660,49
587,62	45986,11
587,813	45564,23
588,006	45814,08
588,199	45416,78
588,392	45820,23
588,585	45254,99
588,777	45195,6
588,97	44843,35
589,163	45787,46
589,356	45519,18
589,549	45328,72
589,742	44829,01
589,935	44884,31
590,128	44720,47
590,32	45191,5
590,513	44239,2
590,706	44888,4
590,899	44204,38
591,092	44405,08
591,284	43845,99
591,477	44226,91
591,67	43981,15
591,863	44224,86
592,055	43397,48
592,248	43665,77
592,441	43532,65
592,633	43954,53
592,826	43463,02
593,019	43313,52
593,211	43473,26
593,404	42914,16
593,596	43043,18
593,789	43049,33
593,982	42991,98
594,174	42631,54
594,367	42117,5
594,559	43000,18
594,752	41877,89
594,944	41789,83
595,137	42260,86
595,329	42707,32
595,522	42750,32
595,714	42090,88
595,907	42092,93
596,099	41437,58
596,292	41566,6
596,484	41496,97
596,676	40960,4
596,869	41724,29
597,061	41843,07
597,253	41247,11
597,446	41021,84
597,638	41263,5
597,83	40647,06
598,023	40604,05
598,215	40655,25
598,407	40493,46
598,6	39696,8
598,792	40470,93
598,984	39387,56
599,176	39872,93
599,369	39975,33
599,561	40173,98
599,753	39391,65
599,945	39881,12
600,137	39553,44
600,329	39047,6
600,522	38748,59
600,714	39135,66
600,906	39111,08
601,098	39203,24
601,29	38527,41
601,482	38582,71
601,674	38619,57
601,866	38193,59
602,058	37974,46
602,25	38033,85
602,442	37781,95
602,634	37933,5
602,826	37114,31
603,018	37657,03
603,21	37822,91
603,402	37063,11
603,594	36803,02
603,786	37210,57
603,978	37220,81
604,17	37018,06
604,362	36760,02
604,554	36579,79
604,745	36886,99
604,937	36817,36
605,129	36389,33
605,321	36370,9
605,513	36137,43
605,704	36266,45
605,896	35351,01
606,088	35973,6
606,28	35869,15
606,471	35975,64
606,663	35533,28
606,855	35123,69
607,047	35359,2
607,238	35277,29
607,43	34769,39
607,622	35234,28
607,813	34445,81
608,005	34652,66
608,197	34732,53
608,388	34650,61
608,58	33827,32
608,771	34128,38
608,963	33755,64
609,154	33798,65
609,346	33489,41
609,537	33636,86
609,729	32782,86
609,921	33528,32
610,112	33432,07
610,303	33290,76
610,495	32616,97
610,686	32856,59
610,878	32426,51
611,069	32201,24
611,261	32195,09
611,452	31869,47
611,643	31935
611,835	31922,71
612,026	31281,7
612,217	31982,1
612,409	31564,32
612,6	31445,54
612,791	30835,24
612,983	31332,9
613,174	31148,58
613,365	30911,02
613,557	30261,81
613,748	30812,71
613,939	30478,89
614,13	30437,94
614,321	29829,69
614,513	30556,72
614,704	29841,98
614,895	29979,19
615,086	29905,46
615,277	29796,92
615,468	29495,87
615,659	29860,41
615,851	29180,48
616,042	29497,92
616,233	29278,79
616,424	29000,26
616,615	28926,53
616,806	29237,83
616,997	28789,32
617,188	28742,22
617,379	29084,23
617,57	29416
617,761	29127,24
617,952	28990,02
618,143	28783,18
618,334	28914,25
618,524	28471,89
618,715	28629,58
618,906	28488,27
619,097	28504,65
619,288	28355,15
619,479	28568,14
619,67	27939,41
619,86	28060,24
620,051	27886,17
620,242	28488,27
620,433	27923,03
620,624	28469,84
620,814	27986,52
621,005	28047,96
621,196	27877,97
621,386	28322,38
621,577	28387,92
621,768	28238,42
621,958	27937,37
622,149	28463,69
622,34	28273,23
622,53	28107,35
622,721	27357,79
622,912	28693,07
623,102	28070,48
623,293	28160,59
623,483	28064,34
623,674	28234,32
623,864	28076,63
624,055	27812,44
624,245	27458,14
624,436	27617,88
624,626	27933,27
624,817	27777,62
625,007	27339,36
625,198	28000,85
625,388	27560,54
625,579	27570,78
625,769	27529,82
625,959	27933,27
626,15	27609,69
626,34	27431,52
626,531	27353,69
626,721	27380,32
626,911	27109,99
627,101	27218,53
627,292	27103,84
627,482	27517,53
627,672	27335,26
627,863	27138,66
628,053	27163,23
628,243	27564,64
628,433	26706,54
628,623	26948,2
628,814	26767,98
629,004	26970,72
629,194	26423,92
629,384	26516,08
629,574	26241,65
629,764	26321,52
629,955	26157,68
630,145	26495,6
630,335	25379,45
630,525	25784,95
630,715	25733,75
630,905	25825,91
631,095	25590,39
631,285	25846,39
631,475	25344,64
631,665	25569,91
631,855	25199,23
632,045	25133,7
632,235	25262,72
632,425	24840,84
632,615	24679,05
632,805	24926,85
632,994	24425,1
633,184	25168,51
633,374	24453,77
633,564	24134,29
633,754	23898,77
633,944	23954,07
634,133	23376,54
634,323	24341,13
634,513	23782,04
634,703	23902,87
634,893	23427,74
635,082	23714,45
635,272	23319,2
635,462	23231,13
635,651	23210,65
635,841	23311
636,031	22985,38
636,221	23087,78
636,41	22835,88
636,6	22606,5
636,789	22725,29
636,979	22446,76
637,169	22364,84
637,358	22313,64
637,548	22616,74
637,737	21852,85
637,927	21680,82
638,116	22059,7
638,306	21842,61
638,495	21492,41
638,685	21060,29
638,874	21457,59
639,064	21500,6
639,253	21353,15
639,443	20996,8
639,632	21484,22
639,822	20943,55
640,011	21050,05
640,2	20753,09
640,39	21088,96
640,579	20976,32
640,768	20564,68
640,958	20304,59
641,147	20462,28
641,336	19909,33
641,526	20142,8
641,715	19946,19
641,904	20490,95
642,093	19542,74
642,283	20069,07
642,472	19555,03
642,661	19518,17
642,85	19905,23
643,039	19237,59
643,228	19299,03
643,418	19405,53
643,607	19473,11
643,796	19415,77
643,985	18854,62
644,174	19022,56
644,363	18989,79
644,552	19043,04
644,741	18377,45
644,93	18850,53
645,119	18522,85
645,308	18707,17
645,497	18125,55
645,686	18238,19
645,875	18164,46
646,064	18014,96
646,253	17844,98
646,442	18361,06
646,631	17457,91
646,82	17863,41
647,009	17562,36
647,198	17607,41
647,387	17691,38
647,575	17367,8
647,764	17662,71
647,953	17507,06
648,142	17601,27
648,331	17441,53
648,519	17261,3
648,708	17347,32
648,897	16685,83
649,086	17097,47
649,274	16552,71
649,463	16644,87
649,652	17095,42
649,84	16589,57
650,029	16571,14
650,218	16702,21
650,406	16820,99
650,595	16343,81
650,784	16163,59
650,972	16663,3
651,161	15919,89
651,349	15989,52
651,538	15975,18
651,726	15995,66
651,915	15960,84
652,104	15733,52
652,292	15827,73
652,481	15766,29
652,669	15934,22
652,857	15498
653,046	15340,31
653,234	15256,34
653,423	15274,77
653,611	15063,83
653,8	14637,86
653,988	15139,61
654,176	14664,48
654,365	14863,13
654,553	14770,97
654,741	15108,89
654,93	14359,33
655,118	14699,3
655,306	14279,46
655,494	14277,41
655,683	14328,61
655,871	14168,87
656,059	14205,74
656,247	13863,72
656,436	13888,3
656,624	14146,34
656,812	13667,12
657	14076,71
657,188	14066,47
657,376	13464,37
657,564	13835,05
657,753	13593,39
657,941	13054,78
658,129	13345,59
658,317	13179,7
658,505	13189,94
658,693	13175,61
658,881	13067,06
659,069	12913,47
659,257	12979
659,445	13050,68
659,633	12950,33
659,821	12612,42
660,009	13183,8
660,197	12655,42
660,384	12731,2
660,572	12235,59
660,76	12647,23
660,948	12526,4
661,136	12215,11
661,324	12305,22
661,512	12665,66
661,699	12424
661,887	12223,3
662,075	12170,05
662,263	12030,79
662,451	12075,85
662,638	11854,67
662,826	11606,86
663,014	12071,75
663,201	12036,94
663,389	11545,42
663,577	11715,41
663,764	11727,69
663,952	11309,91
664,14	11377,49
664,327	11076,44
664,515	11393,87
664,702	11176,79
664,89	11119,45
665,078	10873,69
665,265	10935,13
665,453	11201,37
665,64	11066,2
665,828	10822,49
666,015	10648,41
666,203	10867,55
666,39	10793,82
666,578	10750,81
666,765	10523,49
666,952	10928,99
667,14	10773,34
667,327	10416,99
667,515	10511,2
667,702	10285,92
667,889	10120,04
668,077	10208,1
668,264	10533,73
668,451	10292,07
668,638	10222,44
668,826	9952,1
669,013	10261,35
669,2	10238,82
669,388	9945,96
669,575	9935,72
669,762	9769,83
669,949	9954,15
670,136	14015,27
670,323	9685,87
670,511	9689,96
670,698	9503,6
670,885	9587,57
671,072	9603,95
671,259	9419,63
671,446	9403,25
671,633	9139,06
671,82	9042,81
672,007	9429,87
672,194	9147,25
672,381	9003,89
672,568	9048,95
672,755	9292,66
672,942	8792,95
673,129	8858,49
673,316	8786,81
673,503	9180,02
673,69	9022,33
673,877	8819,58
674,064	8749,95
674,251	8633,21
674,437	8911,74
674,624	8717,18
674,811	8657,79
674,998	8639,36
675,185	8534,91
675,372	8579,97
675,558	8498,05
675,745	8373,12
675,932	8536,96
676,119	8131,46
676,305	8125,32
676,492	8375,17
676,679	8119,17
676,865	8024,97
677,052	7971,72
677,239	8135,56
677,425	7957,38
677,612	7773,07
677,798	7922,57
677,985	7801,74
678,172	7801,74
678,358	7689,1
678,545	7564,17
678,731	7803,78
678,918	7441,29
679,104	7494,54
679,291	7498,64
679,477	7273,36
679,664	7326,61
679,85	7158,67
680,036	7322,51
680,223	7185,3
680,409	7146,39
680,596	6960,02
680,782	7310,22
680,968	7187,35
681,155	7062,42
681,341	6867,86
681,527	6839,19
681,714	7027,6
681,9	6878,1
682,086	6769,56
682,272	6677,4
682,459	6611,87
682,645	6929,3
682,831	6577,05
683,017	6587,29
683,204	7058,32
683,39	6519,71
683,576	6599,58
683,762	6323,1
683,948	6515,61
684,134	6206,37
684,32	6329,25
684,506	6155,17
684,693	6577,05
684,879	6005,67
685,065	6146,98
685,251	5964,71
685,437	6067,11
685,623	6136,74
685,809	6224,8
685,995	6085,54
686,181	6327,2
686,366	6030,24
686,552	5856,17
686,738	5929,89
686,924	5954,47
687,11	5958,57
687,296	5970,85
687,482	5847,97
687,668	5716,9
687,853	5610,41
688,039	5684,14
688,225	5487,53
688,411	5589,93
688,597	5829,54
688,782	5491,63
688,968	5442,48
689,154	5405,61
689,34	5714,86
689,525	5462,96
689,711	5284,78
689,897	5823,4
690,082	5440,43
690,268	5290,93
690,454	5153,71
690,639	5299,12
690,825	5417,9
691,01	5206,96
691,196	4875,19
691,381	5278,64
691,567	5049,27
691,753	4965,3
691,938	4864,95
692,124	4830,13
692,309	5004,21
692,494	4836,28
692,68	4912,05
692,865	4959,16
693,051	4977,59
693,236	4826,04
693,422	4707,26
693,607	4848,57
693,792	4737,98
693,978	4586,43
694,163	4715,45
694,348	4611
694,534	4823,99
694,719	4551,61
694,904	4404,16
695,089	4666,3
695,275	4553,66
695,46	4322,24
695,645	4498,36
695,83	4430,78
696,016	4256,7
696,201	4256,7
696,386	4051,91
696,571	4490,17
696,756	4178,88
696,941	4238,27
697,126	4019,14
697,311	4199,36
697,497	4299,71
697,682	4207,55
697,867	4084,67
698,052	4152,26
698,237	4455,36
698,422	4002,75
698,607	3961,8
698,792	4072,39
698,977	3955,65
699,162	3949,51
699,347	3670,98
699,531	4170,69
699,716	4111,3
699,901	3732,42
700,086	3699,66
700,271	3937,22
700,456	4092,87
700,641	3732,42
700,825	3681,22
701,01	4182,98
701,195	3947,46
701,38	3789,77
701,565	3636,17
701,749	3812,29
701,934	3791,81
702,119	3679,18
702,303	3570,63
702,488	3757
702,673	3929,03
702,857	3544,01
703,042	3503,05
703,227	3777,48
703,411	3595,21
703,596	3568,59
703,78	3419,08
703,965	3451,85
704,15	3429,32
704,334	3494,86
704,519	3146,7
704,703	3369,93
704,888	3394,51
705,072	3322,83
705,257	3204,05
705,441	3206,1
705,625	3947,46
705,81	3242,96
705,994	3091,41
706,179	3353,55
706,363	3257,29
706,547	3152,85
706,732	3212,24
706,916	3230,67
707,1	3081,17
707,285	3019,73
707,469	2866,13
707,653	3242,96
707,837	3064,79
708,022	3038,16
708,206	2950,1
708,39	2862,04
708,574	3130,32
708,759	2868,18
708,943	2710,49
709,127	2911,19
709,311	2997,2
709,495	2720,73
709,679	2821,08
709,863	3021,78
710,047	2878,42
710,231	2743,25
710,415	2538,46
710,6	2913,24
710,784	2681,82
710,968	2907,09
711,152	2651,1
711,336	2733,01
711,519	2954,19
711,703	2458,59
711,887	2667,48
712,071	2640,86
712,255	2542,55
712,439	2816,98
712,623	2589,66
712,807	2636,76
712,991	2704,34
713,174	2493,4
713,358	2616,28
713,542	2696,15
713,726	2669,53
713,91	2528,22
714,093	2413,53
714,277	2560,98
714,461	2640,86
714,645	2370,52
714,828	2272,22
715,012	2419,68
715,196	2395,1
715,379	2374,62
715,563	2278,37
715,747	2358,24
715,93	2391
716,114	2270,17
716,297	2118,62
716,481	2307,04
716,664	2374,62
716,848	1999,84
717,031	2175,97
717,215	2253,79
717,398	2335,71
717,582	2204,64
717,765	2241,5
717,949	2116,58
718,132	2190,3
718,316	1975,27
718,499	1817,57
718,682	2501,59
718,866	2079,71
719,049	2075,62
719,233	1983,46
719,416	2378,72
719,599	2319,32
719,782	1836
719,966	1911,78
720,149	1928,16
720,332	2184,16
720,515	1854,44
720,699	1938,4
720,882	1987,55
721,065	1995,75
721,248	1809,38
721,431	1758,18
721,615	1842,15
721,798	2065,38
721,981	1887,2
722,164	1786,85
722,347	1883,11
722,53	2214,88
722,713	1684,45
722,896	1731,56
723,079	1850,34
723,262	1856,48
723,445	1780,71
723,628	1588,2
723,811	1813,48
723,994	1809,38
724,177	1788,9
724,36	1713,13
724,543	1799,14
724,726	1735,65
724,909	1768,42
725,091	1815,52
725,274	1788,9
725,457	1793
725,64	1545,19
725,823	1674,21
726,006	1625,06
726,188	1700,84
726,371	1876,96
726,554	1481,71
726,737	1520,62
726,919	1661,93
727,102	1508,33
727,285	1512,42
727,467	1577,96
727,65	1670,12
727,833	1332,2
728,015	1453,03
728,198	1528,81
728,38	1496,04
728,563	1534,95
728,746	1360,88
728,928	1600,49
729,111	1448,94
729,293	1479,66
729,476	1487,85
729,658	1575,91
729,841	1502,19
730,023	1397,74
730,205	1266,67
730,388	1498,09
730,57	1645,54
730,753	1262,57
730,935	1350,64
731,117	1784,8
731,3	1317,87
731,482	1326,06
731,664	1260,52
731,847	1633,26
732,029	1403,88
732,211	1438,7
732,394	1055,73
732,576	1375,21
732,758	1627,11
732,94	1293,29
733,122	1330,16
733,305	1793
733,487	1354,73
733,669	1250,28
733,851	1240,05
734,033	1455,08
734,215	1432,55
734,397	1332,2
734,58	1405,93
734,762	1389,55
734,944	1448,94
735,126	1139,69
735,308	1289,2
735,49	1299,44
735,672	1260,52
735,854	1047,54
736,036	1268,72
736,218	1567,72
736,399	1364,97
736,581	1285,1
736,763	1156,08
736,945	1504,23
737,127	1149,93
737,309	1203,18
737,491	1086,45
737,672	1211,37
737,854	1143,79
738,036	1194,99
738,218	1033,2
738,4	928,75
738,581	1215,47
738,763	1027,06
738,945	1035,25
739,127	1170,41
739,308	1180,65
739,49	1121,26
739,672	1029,1
739,853	1162,22
740,035	1006,58
740,216	900,08
740,398	883,7
740,58	1149,93
740,761	1147,89
740,943	973,81
741,124	943,09
741,306	1072,11
741,487	1119,21
741,669	990,19
741,85	881,65
742,032	1121,26
742,213	1016,82
742,394	867,31
742,576	928,75
742,757	1262,57
742,939	1178,61
743,12	867,31
743,301	887,79
743,483	959,47
743,664	881,65
743,845	926,71
744,027	826,36
744,208	961,52
744,389	1006,58
744,57	814,07
744,752	791,54
744,933	943,09
745,114	865,27
745,295	830,45
745,476	914,42
745,657	830,45
745,839	924,66
746,02	812,02
746,201	789,49
746,382	1016,82
746,563	1211,37
746,744	779,25
746,925	621,56
747,106	875,51
747,287	934,9
747,468	707,57
747,649	785,4
747,83	785,4
748,011	1018,86
748,192	867,31
748,373	719,86
748,554	732,15
748,735	957,43
748,915	676,85
749,096	644,09
749,277	953,33
749,458	996,34
749,639	742,39
749,82	756,72
750	674,81
750,181	1006,58
750,362	742,39
750,543	822,26
750,723	967,67
750,904	949,23
751,085	650,23
751,265	719,86
751,446	877,55
751,627	799,73
751,807	699,38
751,988	564,22
752,169	943,09
752,349	863,22
752,53	603,13
752,71	613,37
752,891	1084,4
753,071	900,08
753,252	543,74
753,432	713,72
753,613	930,8
753,793	928,75
753,974	596,98
754,154	760,82
754,334	1070,06
754,515	701,43
754,695	869,36
754,876	734,2
755,056	1088,5
755,236	799,73
755,417	711,67
755,597	760,82
755,777	674,81
755,957	877,55
756,138	644,09
756,318	617,46
756,498	850,93
756,678	799,73
756,859	771,06
757,039	627,7
757,219	902,13
757,399	707,57
757,579	654,33
757,759	525,3
757,939	551,93
758,119	934,9
758,3	732,15
758,48	646,13
758,66	603,13
758,84	486,39
759,02	648,18
759,2	447,48
759,38	654,33
759,56	908,27
759,74	537,59
759,919	418,81
760,099	824,31
760,279	869,36
760,459	617,46
760,639	533,5
760,819	715,77
760,999	375,8
761,178	580,6
761,358	570,36
761,538	588,79
761,718	609,27
761,898	324,6
762,077	494,58
762,257	605,17
762,437	668,66
762,616	398,33
762,796	379,9
762,976	703,48
763,155	558,07
763,335	357,37
763,515	476,15
763,694	781,3
763,874	594,93
764,053	592,89
764,233	480,25
764,413	635,89
764,592	760,82
764,772	523,26
764,951	498,68
765,131	566,26
765,31	752,63
765,489	588,79
765,669	398,33
765,848	791,54
766,028	549,88
766,207	285,69
766,386	408,57
766,566	504,82
766,745	527,35
766,924	498,68
767,104	355,32
767,283	404,47
767,462	807,92
767,642	447,48
767,821	367,61
768	310,27
768,179	572,41
768,358	459,77
768,538	445,43
768,717	470,01
768,896	488,44
769,075	535,54
769,254	222,2
769,433	603,13
769,612	580,6
769,791	236,54
769,97	252,92
770,149	549,88
770,328	257,02
770,507	367,61
770,686	201,72
770,865	549,88
771,044	381,95
771,223	236,54
771,402	355,32
771,581	427
771,76	308,22
771,939	398,33
772,118	244,73
772,297	439,29
772,475	488,44
772,654	383,99
772,833	287,74
773,012	824,31
773,191	551,93
773,369	306,17
773,548	365,56
773,727	179,2
773,906	676,85
774,084	359,42
774,263	240,64
774,442	322,56
774,62	429,05
774,799	220,16
774,977	332,79
775,156	617,46
775,335	527,35
775,513	197,63
775,692	121,85
775,87	867,31
776,049	320,51
776,227	175,1
776,406	195,58
776,584	361,47
776,763	523,26
776,941	15,36
777,119	150,53
777,298	209,92
777,476	582,65
777,655	185,34
777,833	150,53
778,011	437,24
778,19	439,29
778,368	232,44
778,546	109,57
778,725	523,26
778,903	277,5
779,081	173,05
779,259	181,25
779,437	283,64
779,616	326,65
779,794	193,53
779,972	125,95
780,15	330,75
780,328	252,92
780,506	187,39
780,685	230,4
780,863	222,2
781,041	158,72
781,219	211,96
781,397	168,96
781,575	263,16
781,753	252,92
781,931	97,28
782,109	84,99
782,287	230,4
782,465	363,51
782,643	179,2
782,82	193,53
782,998	498,68
783,176	398,33
783,354	78,85
783,532	138,24
783,71	310,27
783,888	355,32
784,065	103,42
784,243	115,71
784,421	203,77
784,599	324,6
784,776	52,22
784,954	39,94
785,132	281,6
785,31	64,51
785,487	17,41
785,665	107,52
785,842	351,23
786,02	719,86
786,198	113,66
786,375	54,27
786,553	308,22
786,73	267,26
786,908	91,13
787,085	80,89
787,263	197,63
787,44	218,11
787,618	144,38
787,795	-25,6
787,973	13,31
788,15	285,69
788,328	113,66
788,505	146,43
788,682	275,45
788,86	142,33
789,037	66,56
789,215	115,71
789,392	185,34
789,569	408,57
789,746	87,04
789,924	-80,89
790,101	373,75
790,278	359,42
790,455	-19,46
790,633	62,46
790,81	277,5
790,987	66,56
791,164	44,03
791,341	-41,98
791,518	-50,18
791,695	300,03
791,873	33,79
792,05	-7,17
792,227	105,47
792,404	193,53
792,581	72,7
792,758	80,89
792,935	56,32
793,112	273,4
793,289	70,65
793,466	134,14
793,643	60,42
793,82	5,12
793,996	-25,6
794,173	62,46
794,35	-48,13
794,527	400,38
794,704	201,72
794,881	-44,03
795,057	148,48
795,234	-13,31
795,411	105,47
795,588	-58,37
795,765	9,22
795,941	111,61
796,118	-21,5
796,295	-29,7
796,471	150,53
796,648	89,09
796,825	76,8
797,001	-7,17
797,178	398,33
797,354	394,23
797,531	-33,79
797,708	-82,94
797,884	439,29
798,061	91,13
798,237	-162,81
798,414	-117,76
798,59	197,63
798,767	138,24
798,943	-54,27
799,119	44,03
799,296	216,06
799,472	203,77
799,649	-91,13
799,825	-11,26
800,001	-17,41
800,178	-105,47
800,354	97,28
800,53	1,02
800,707	-39,94
800,883	58,37
801,059	19,46
801,235	291,84
801,411	39,94
801,588	-27,65
801,764	46,08
801,94	-117,76
802,116	46,08
802,292	-19,46
802,468	1,02
802,645	33,79
802,821	338,94
802,997	218,11
803,173	-166,91
803,349	-134,14
803,525	183,29
803,701	125,95
803,877	-37,89
804,053	-125,95
804,229	195,58
804,405	324,6
804,581	-138,24
804,756	-72,7
804,932	56,32
805,108	171,01
805,284	-97,28
805,46	-54,27
805,636	205,82
805,812	152,57
805,987	-91,13
806,163	-107,52
806,339	2778,07
806,515	-70,65
806,69	-70,65
806,866	-44,03
807,042	312,32
807,217	199,68
807,393	-52,22
807,569	-257,02
807,744	420,86
807,92	451,58
808,096	-91,13
808,271	-11,26
808,447	39,94
808,622	3,07
808,798	37,89
808,973	-70,65
809,149	267,26
809,324	72,7
809,5	-64,51
809,675	-181,25
809,851	62,46
810,026	154,62
810,201	-62,46
810,377	-97,28
810,552	21,5
810,728	181,25
810,903	-13,31
811,078	-140,29
811,253	205,82
811,429	-105,47
811,604	-187,39
811,779	-29,7
811,955	171,01
812,13	48,13
812,305	-39,94
812,48	-37,89
812,655	322,56
812,83	375,8
813,006	-60,42
813,181	-66,56
813,356	-125,95
813,531	39,94
813,706	-117,76
813,881	-162,81
814,056	-35,84
814,231	275,45
814,406	-136,19
814,581	-246,78
814,756	156,67
814,931	41,98
815,106	-70,65
815,281	-17,41
815,456	316,41
815,631	134,14
815,805	-27,65
815,98	-185,34
816,155	74,75
816,33	125,95
816,505	-121,85
816,68	-3,07
816,854	-50,18
817,029	158,72
817,204	-232,44
817,379	-132,09
817,553	185,34
817,728	-9,22
817,903	-103,42
818,077	-58,37
818,252	50,18
818,427	220,16
818,601	33,79
818,776	-121,85
818,95	-37,89
819,125	238,59
819,299	-72,7
819,474	-64,51
819,648	-64,51
819,823	295,93
819,997	-15,36
820,172	-203,77
820,346	203,77
820,521	115,71
820,695	-125,95
820,87	-138,24
821,044	-37,89
821,218	109,57
821,393	109,57
821,567	-199,68
821,741	1,02
821,916	3,07
822,09	7,17
822,264	-89,09
822,438	-132,09
822,613	1,02
822,787	25,6
822,961	-111,61
823,135	152,57
823,309	109,57
823,483	-160,77
823,658	-80,89
823,832	216,06
824,006	-113,66
824,18	-113,66
824,354	-142,33
824,528	-25,6
824,702	240,64
824,876	-230,4
825,05	-33,79
825,224	134,14
825,398	160,77
825,572	-259,07
825,746	-193,53
825,92	263,16
826,093	-29,7
826,267	-72,7
826,441	-123,9
826,615	338,94
826,789	201,72
826,963	-56,32
827,136	-74,75
827,31	101,37
827,484	-191,49
827,658	-142,33
827,831	-111,61
828,005	-25,6
828,179	-111,61
828,353	-93,18
828,526	-146,43
828,7	138,24
828,873	-125,95
829,047	-230,4
829,221	-234,49
829,394	-21,5
829,568	87,04
829,741	-201,72
829,915	-203,77
830,088	281,6
830,262	388,09
830,435	-185,34
830,609	5,12
830,782	113,66
830,956	93,18
831,129	-23,55
831,302	-197,63
831,476	66,56
831,649	-74,75
831,822	-46,08
831,996	-39,94
832,169	269,31
832,342	-146,43
832,516	-238,59
832,689	-297,98
832,862	130,05
833,035	254,97
833,209	64,51
833,382	-35,84
833,555	-146,43
833,728	-11,26
833,901	-193,53
834,074	-103,42
834,247	48,13
834,42	74,75
834,594	-115,71
834,767	-13,31
834,94	263,16
835,113	207,87
835,286	-74,75
835,459	-123,9
835,632	74,75
835,805	-117,76
835,977	-44,03
836,15	-37,89
836,323	1,02
836,496	222,2
836,669	-115,71
836,842	-117,76
837,015	330,75
837,188	91,13
837,36	-130,05
837,533	-91,13
837,706	52,22
837,879	308,22
838,051	-211,96
838,224	-103,42
838,397	9,22
838,569	164,86
838,742	-160,77
838,915	-158,72
839,087	148,48
839,26	234,49
839,433	-82,94
839,605	35,84
839,778	-230,4
839,95	236,54
840,123	-5,12
840,295	-25,6
840,468	-17,41
840,64	58,37
840,813	-93,18
840,985	-54,27
841,158	15,36
841,33	78,85
841,502	-168,96
841,675	-128
841,847	177,15
842,019	154,62
842,192	-132,09
842,364	-136,19
842,536	64,51
842,709	74,75
842,881	-140,29
843,053	-113,66
843,225	-56,32
843,398	220,16
843,57	-68,61
843,742	-130,05
843,914	111,61
844,086	334,84
844,258	-267,26
844,43	-68,61
844,602	277,5
844,775	-33,79
844,947	-123,9
845,119	-183,29
845,291	252,92
845,463	238,59
845,635	-285,69
845,807	-158,72
845,979	119,81
846,15	1,02
846,322	-148,48
846,494	-199,68
846,666	-3,07
846,838	216,06
847,01	-171,01
847,182	-150,53
847,354	109,57
847,525	152,57
847,697	-44,03
847,869	-246,78
848,041	173,05
848,212	168,96
848,384	-271,36
848,556	-128
848,727	168,96
848,899	-78,85
849,071	-91,13
849,242	-52,22
849,414	160,77
849,585	93,18
849,757	-111,61
849,929	-31,74
850,1	-66,56
850,272	293,88
850,443	-17,41
850,615	-84,99
850,786	103,42
850,958	41,98
851,129	-160,77
851,3	-58,37
851,472	54,27
851,643	-25,6
851,815	-37,89
851,986	-91,13
852,157	138,24
852,329	343,03
852,5	-242,68
852,671	162,81
852,842	72,7
853,014	9,22
853,185	-76,8
853,356	-97,28
853,527	142,33
853,698	222,2
853,87	52,22
854,041	56,32
854,212	154,62
854,383	136,19
854,554	-224,25
854,725	-101,37
854,896	162,81
855,067	-11,26
855,238	-168,96
855,409	-84,99
855,58	7,17
855,751	365,56
855,922	-84,99
856,093	578,55
856,264	-173,05
856,435	44,03
856,606	-87,04
856,777	-48,13
856,948	9,22
857,118	-48,13
857,289	-107,52
857,46	171,01
857,631	158,72
857,802	123,9
857,972	-70,65
858,143	41,98
858,314	-130,05
858,484	-128
858,655	-162,81
858,826	-115,71
858,996	72,7
859,167	316,41
859,338	-279,55
859,508	-130,05
859,679	76,8
859,849	-19,46
860,02	-168,96
860,19	-64,51
860,361	228,35
860,531	-87,04
860,702	-89,09
860,872	15,36
861,043	-68,61
861,213	285,69
861,384	-111,61
861,554	-115,71
861,724	-156,67
861,895	17,41
862,065	150,53
862,235	-97,28
862,406	152,57
862,576	-48,13
862,746	-173,05
862,916	-107,52
863,087	336,89
863,257	115,71
863,427	-197,63
863,597	-68,61
863,767	209,92
863,937	-166,91
864,108	-80,89
864,278	-93,18
864,448	285,69
864,618	203,77
864,788	-257,02
864,958	-9,22
865,128	29,7
865,298	-29,7
865,468	-82,94
865,638	-203,77
865,808	146,43
865,978	400,38
866,148	-171,01
866,318	-230,4
866,487	226,3
866,657	27,65
866,827	-19,46
866,997	-211,96
867,167	263,16
867,337	211,96
867,506	-99,33
867,676	-111,61
867,846	-31,74
868,016	154,62
868,185	-263,16
868,355	-82,94
868,525	154,62
868,694	60,42
868,864	-50,18
869,034	-19,46
869,203	78,85
869,373	15,36
869,542	-68,61
869,712	-132,09
869,881	84,99
870,051	-39,94
870,22	-111,61
870,39	-162,81
870,559	80,89
870,729	-224,25
870,898	-107,52
871,068	-148,48
871,237	-25,6
871,406	-76,8
871,576	-19,46
871,745	-148,48
871,914	-23,55
872,084	35,84
872,253	-183,29
872,422	-134,14
872,591	162,81
872,761	-130,05
872,93	109,57
873,099	-62,46
873,268	21,5
873,437	-41,98
873,607	-224,25
873,776	-78,85
873,945	27,65
874,114	-68,61
874,283	-134,14
874,452	35,84
874,621	97,28
874,79	201,72
874,959	-144,38
875,128	-97,28
875,297	87,04
875,466	265,21
875,635	-158,72
875,804	-175,1
875,973	-33,79
876,142	218,11
876,31	-158,72
876,479	-134,14
876,648	154,62
876,817	-119,81
876,986	-78,85
877,155	-19,46
877,323	-84,99
877,492	246,78
877,661	-101,37
877,829	-15,36
877,998	21,5
878,167	171,01
878,335	-160,77
878,504	-185,34
878,673	-60,42
878,841	-168,96
879,01	-136,19
879,178	-218,11
879,347	119,81
879,515	7,17
879,684	27,65
879,852	-201,72
880,021	-7,17
880,189	107,52
880,358	-107,52
880,526	181,25
880,695	-107,52
880,863	121,85
881,031	-115,71
881,2	-193,53
881,368	-66,56
881,536	277,5
881,705	-173,05
881,873	-209,92
882,041	74,75
882,21	31,74
882,378	-93,18
882,546	-107,52
882,714	62,46
882,882	7,17
883,05	-105,47
883,219	-93,18
883,387	-1,02
883,555	21,5
883,723	-205,82
883,891	-185,34
884,059	-60,42
884,227	144,38
884,395	-148,48
884,563	-109,57
884,731	-17,41
884,899	173,05
885,067	-168,96
885,235	-121,85
885,403	205,82
885,571	156,67
885,739	-257,02
