Data from LED  warmweiss 1_USB4F035431__0__12-54-41-165.txt Node

Date: Tue Feb 02 12:54:41 CET 2021
User: Praktikum
Spectrometer: USB4F03543
Trigger mode: 4
Integration Time (sec): 4,000000E-1
Scans to average: 1
Electric dark correction enabled: true
Nonlinearity correction enabled: false
Boxcar width: 0
XAxis mode: Wavelengths
Number of Pixels in Spectrum: 3648
>>>>>Begin Spectral Data<<<<<
179,969	-628,9
180,181	-628,9
180,394	-628,9
180,606	-637,09
180,819	-725,15
181,031	225,11
181,243	364,37
181,456	-164,01
181,668	-143,53
181,88	241,49
182,093	5,97
182,305	-299,17
182,518	-135,34
182,73	251,73
182,942	106,32
183,155	-305,32
183,367	-147,62
183,579	257,87
183,791	270,16
184,004	-174,25
184,216	-139,43
184,428	59,22
184,641	124,76
184,853	-266,41
185,065	-143,53
185,277	239,44
185,49	175,95
185,702	-217,26
185,914	-227,5
186,126	112,47
186,338	161,62
186,551	-243,88
186,763	-151,72
186,975	-133,29
187,187	178
187,399	-233,64
187,612	-176,3
187,824	38,74
188,036	155,47
188,248	-18,6
188,46	-256,17
188,672	235,35
188,885	-22,7
189,097	-176,3
189,309	-231,59
189,521	120,66
189,733	118,61
189,945	-176,3
190,157	-86,19
190,369	69,46
190,581	-57,51
190,794	-188,58
191,006	-178,34
191,218	30,55
191,43	159,57
191,642	-229,54
191,854	-153,77
192,066	300,88
192,278	167,76
192,49	-202,92
192,702	-135,34
192,914	151,38
193,126	71,51
193,338	-190,63
193,55	-188,58
193,762	280,4
193,974	-133,29
194,186	-198,82
194,398	-204,97
194,61	24,4
194,822	165,71
195,034	-176,3
195,246	-2,22
195,457	161,62
195,669	386,9
195,881	-184,49
196,093	-250,02
196,305	53,08
196,517	-180,39
196,729	-215,21
196,941	-231,59
197,153	294,74
197,365	454,48
197,576	-329,89
197,788	-231,59
198	194,39
198,212	345,94
198,424	-227,5
198,636	-209,06
198,847	-18,6
199,059	141,14
199,271	-280,74
199,483	-170,15
199,695	184,15
199,906	221,01
200,118	-276,65
200,33	-131,24
200,542	948,04
200,753	42,84
200,965	-200,87
201,177	-192,68
201,389	167,76
201,6	-176,3
201,812	-209,06
202,024	-121
202,235	-30,89
202,447	243,54
202,659	-100,52
202,871	-151,72
203,082	34,64
203,294	-47,27
203,506	-262,31
203,717	-166,06
203,929	114,52
204,141	-51,37
204,352	-198,82
204,564	-149,67
204,775	77,65
204,987	329,55
205,199	-213,16
205,41	-57,51
205,622	259,92
205,833	48,98
206,045	-125,1
206,257	-174,25
206,468	-10,41
206,68	71,51
206,891	-180,39
207,103	-141,48
207,314	-170,15
207,526	130,9
207,737	-235,69
207,949	-22,7
208,16	89,94
208,372	40,79
208,583	-233,64
208,795	-198,82
209,006	36,69
209,218	208,72
209,429	-280,74
209,641	-170,15
209,852	61,27
210,064	130,9
210,275	-227,5
210,487	-213,16
210,698	257,87
210,909	208,72
211,121	-182,44
211,332	-137,38
211,544	206,67
211,755	296,78
211,966	38,74
212,178	-262,31
212,389	593,74
212,6	91,99
212,812	30,55
213,023	-190,63
213,234	192,34
213,446	130,9
213,657	-284,84
213,868	-149,67
214,08	427,85
214,291	190,29
214,502	-137,38
214,714	-270,5
214,925	77,65
215,136	32,6
215,347	-102,57
215,559	-340,13
215,77	-84,14
215,981	331,6
216,192	-256,17
216,404	-159,91
216,615	190,29
216,826	247,63
217,037	-233,64
217,249	-194,73
217,46	423,76
217,671	175,95
217,882	-252,07
218,093	-188,58
218,304	161,62
218,516	91,99
218,727	-315,56
218,938	-229,54
219,149	286,54
219,36	108,37
219,571	-331,94
219,782	-219,3
219,993	276,31
220,205	-8,36
220,416	-69,8
220,627	-174,25
220,838	221,01
221,049	608,08
221,26	-190,63
221,471	-209,06
221,682	231,25
221,893	200,53
222,104	-282,79
222,315	-274,6
222,526	-112,81
222,737	5,97
222,948	-250,02
223,159	-141,48
223,37	98,13
223,581	28,5
223,792	-161,96
224,003	-71,85
224,214	-84,14
224,425	153,43
224,636	-284,84
224,847	-123,05
225,058	167,76
225,269	161,62
225,48	-227,5
225,691	-260,26
225,902	194,39
226,112	36,69
226,323	-278,69
226,534	-145,58
226,745	20,31
226,956	24,4
227,167	-161,96
227,378	-186,54
227,589	-20,65
227,799	292,69
228,01	-198,82
228,221	-213,16
228,432	130,9
228,643	-110,76
228,853	-149,67
229,064	-280,74
229,275	75,6
229,486	-14,51
229,697	-211,11
229,907	-166,06
230,118	87,89
230,329	-51,37
230,54	-293,03
230,75	-100,52
230,961	292,69
231,172	-18,6
231,383	-176,3
231,593	-256,17
231,804	-47,27
232,015	182,1
232,225	-147,62
232,436	-176,3
232,647	178
232,857	194,39
233,068	-217,26
233,279	-129,19
233,489	139,09
233,7	112,47
233,91	-272,55
234,121	-170,15
234,332	85,84
234,542	81,75
234,753	-252,07
234,964	-170,15
235,174	75,6
235,385	206,67
235,595	-123,05
235,806	-127,14
236,016	-47,27
236,227	57,17
236,437	-245,93
236,648	-151,72
236,858	20,31
237,069	8,02
237,279	-225,45
237,49	-272,55
237,7	139,09
237,911	44,88
238,121	-229,54
238,332	-198,82
238,542	218,96
238,753	12,12
238,963	-288,93
239,174	-100,52
239,384	108,37
239,595	85,84
239,805	-207,02
240,015	-223,4
240,226	132,95
240,436	130,9
240,647	-329,89
240,857	-127,14
241,067	106,32
241,278	759,63
241,488	-213,16
241,698	-121
241,909	-10,41
242,119	145,24
242,329	-186,54
242,54	-190,63
242,75	98,13
242,96	-88,23
243,171	-116,9
243,381	-241,83
243,591	-75,95
243,801	350,03
244,012	-22,7
244,222	-172,2
244,432	-204,97
244,642	18,26
244,853	-192,68
245,063	-194,73
245,273	210,77
245,483	57,17
245,694	-139,43
245,904	-108,71
246,114	210,77
246,324	-28,84
246,534	-102,57
246,744	-155,82
246,955	-329,89
247,165	319,31
247,375	-20,65
247,585	-143,53
247,795	28,5
248,005	239,44
248,215	-57,51
248,425	-18,6
248,636	634,7
248,846	-26,79
249,056	-217,26
249,266	-229,54
249,476	135
249,686	122,71
249,896	-256,17
250,106	-182,44
250,316	22,36
250,526	501,58
250,736	-274,6
250,946	79,7
251,156	321,36
251,366	3,93
251,576	-137,38
251,786	-118,95
251,996	-2,22
252,206	-92,33
252,416	-247,97
252,626	-221,35
252,836	-82,09
253,046	128,85
253,256	-168,1
253,466	-108,71
253,676	44,88
253,885	196,43
254,095	-258,21
254,305	-129,19
254,515	57,17
254,725	128,85
254,935	-223,4
255,145	-114,86
255,355	264,02
255,564	67,41
255,774	-256,17
255,984	24,4
256,194	94,04
256,404	14,17
256,614	-207,02
256,823	-104,62
257,033	67,41
257,243	272,21
257,453	-256,17
257,662	-184,49
257,872	259,92
258,082	51,03
258,292	-293,03
258,501	-145,58
258,711	706,38
258,921	474,96
259,131	-299,17
259,34	-164,01
259,55	44,88
259,76	-59,56
259,969	-260,26
260,179	-157,86
260,389	114,52
260,598	290,64
260,808	-131,24
261,018	-217,26
261,227	341,84
261,437	-30,89
261,647	-192,68
261,856	-295,08
262,066	192,34
262,275	393,04
262,485	-192,68
262,694	-157,86
262,904	38,74
263,114	261,97
263,323	-143,53
263,533	-243,88
263,742	46,93
263,952	159,57
264,161	-200,87
264,371	-247,97
264,58	145,24
264,79	-34,99
264,999	-125,1
265,209	-174,25
265,418	208,72
265,628	165,71
265,837	-149,67
266,047	-180,39
266,256	331,6
266,466	3,93
266,675	-207,02
266,884	-272,55
267,094	96,08
267,303	356,18
267,513	-80,04
267,722	26,45
267,931	251,73
268,141	-61,61
268,35	-184,49
268,559	-131,24
268,769	38,74
268,978	-151,72
269,187	-161,96
269,397	-221,35
269,606	-127,14
269,815	-65,71
270,025	-155,82
270,234	-104,62
270,443	-141,48
270,653	91,99
270,862	-264,36
271,071	-133,29
271,28	44,88
271,49	126,8
271,699	-250,02
271,908	-147,62
272,117	104,28
272,327	26,45
272,536	-262,31
272,745	-196,78
272,954	32,6
273,163	145,24
273,372	112,47
273,582	-131,24
273,791	135
274	-47,27
274,209	8,02
274,418	-18,6
274,627	294,74
274,836	53,08
275,046	-73,9
275,255	-41,13
275,464	38,74
275,673	-82,09
275,882	-8,36
276,091	-55,47
276,3	178
276,509	79,7
276,718	3,93
276,927	-110,76
277,136	87,89
277,345	48,98
277,554	77,65
277,763	-16,55
277,972	192,34
278,181	255,83
278,39	-92,33
278,599	-67,75
278,808	24,4
279,017	141,14
279,226	-131,24
279,435	-49,32
279,644	55,12
279,853	202,58
280,062	268,11
280,271	-96,43
280,48	5,97
280,688	3,93
280,897	5,97
281,106	-127,14
281,315	-63,66
281,524	100,18
281,733	14,17
281,942	-30,89
282,151	128,85
282,359	178
282,568	-116,9
282,777	-18,6
282,986	34,64
283,195	169,81
283,403	-39,08
283,612	-41,13
283,821	1,88
284,03	-57,51
284,238	81,75
284,447	-16,55
284,656	-22,7
284,865	173,91
285,073	-4,27
285,282	18,26
285,491	-20,65
285,699	-94,38
285,908	-12,46
286,117	-18,6
286,325	126,8
286,534	272,21
286,743	81,75
286,951	-28,84
287,16	204,63
287,369	-16,55
287,577	12,12
287,786	-69,8
287,995	20,31
288,203	-112,81
288,412	42,84
288,62	36,69
288,829	-28,84
289,037	-20,65
289,246	28,5
289,455	-123,05
289,663	184,15
289,872	296,78
290,08	-26,79
290,289	120,66
290,497	-104,62
290,706	69,46
290,914	-180,39
291,123	-82,09
291,331	124,76
291,54	264,02
291,748	186,19
291,957	44,88
292,165	102,23
292,373	-100,52
292,582	1,88
292,79	10,07
292,999	167,76
293,207	73,56
293,415	-59,56
293,624	-149,67
293,832	59,22
294,041	108,37
294,249	14,17
294,457	-161,96
294,666	137,04
294,874	-123,05
295,082	51,03
295,291	112,47
295,499	22,36
295,707	165,71
295,915	24,4
296,124	-20,65
296,332	22,36
296,54	46,93
296,749	173,91
296,957	10,07
297,165	-51,37
297,373	26,45
297,581	38,74
297,79	-30,89
297,998	-59,56
298,206	-92,33
298,414	3,93
298,622	38,74
298,831	206,67
299,039	-106,67
299,247	116,56
299,455	-8,36
299,663	321,36
299,871	67,41
300,08	-73,9
300,288	5,97
300,496	85,84
300,704	-2,22
300,912	-57,51
301,12	-26,79
301,328	143,19
301,536	1,88
301,744	-98,47
301,952	-18,6
302,16	-114,86
302,368	-49,32
302,576	18,26
302,784	89,94
302,992	-186,54
303,2	12,12
303,408	-112,81
303,616	-61,61
303,824	216,91
304,032	253,78
304,24	257,87
304,448	143,19
304,656	14,17
304,864	311,12
305,072	73,56
305,28	28,5
305,488	118,61
305,696	110,42
305,904	-14,51
306,111	-159,91
306,319	53,08
306,527	69,46
306,735	75,6
306,943	14,17
307,151	14,17
307,359	-67,75
307,566	81,75
307,774	85,84
307,982	137,04
308,19	-114,86
308,398	-100,52
308,605	-86,19
308,813	-30,89
309,021	71,51
309,229	120,66
309,436	-114,86
309,644	231,25
309,852	165,71
310,06	48,98
310,267	-82,09
310,475	87,89
310,683	145,24
310,89	59,22
311,098	112,47
311,306	-10,41
311,513	259,92
311,721	-77,99
311,929	89,94
312,136	26,45
312,344	-32,94
312,552	65,36
312,759	-73,9
312,967	120,66
313,174	57,17
313,382	87,89
313,589	44,88
313,797	206,67
314,005	165,71
314,212	38,74
314,42	-94,38
314,627	1,88
314,835	96,08
315,042	-84,14
315,25	-170,15
315,457	-94,38
315,665	-182,44
315,872	71,51
316,08	5,97
316,287	-16,55
316,495	560,97
316,702	-69,8
316,909	-168,1
317,117	151,38
317,324	159,57
317,532	223,06
317,739	-125,1
317,946	14,17
318,154	-69,8
318,361	-43,18
318,569	94,04
318,776	-18,6
318,983	-94,38
319,191	-0,17
319,398	-45,23
319,605	-8,36
319,813	233,3
320,02	-174,25
320,227	116,56
320,434	173,91
320,642	61,27
320,849	-37,03
321,056	24,4
321,264	73,56
321,471	151,38
321,678	3,93
321,885	-84,14
322,092	202,58
322,3	67,41
322,507	-141,48
322,714	59,22
322,921	36,69
323,128	-139,43
323,336	-55,47
323,543	-8,36
323,75	173,91
323,957	96,08
324,164	65,36
324,371	-57,51
324,578	-157,86
324,786	233,3
324,993	-53,42
325,2	44,88
325,407	-235,69
325,614	14,17
325,821	208,72
326,028	182,1
326,235	151,38
326,442	98,13
326,649	-61,61
326,856	20,31
327,063	-102,57
327,27	-0,17
327,477	-63,66
327,684	-153,77
327,891	-92,33
328,098	118,61
328,305	139,09
328,512	-118,95
328,719	200,53
328,926	341,84
329,133	-141,48
329,34	257,87
329,546	65,36
329,753	96,08
329,96	-133,29
330,167	91,99
330,374	118,61
330,581	212,82
330,788	-151,72
330,995	-61,61
331,201	108,37
331,408	71,51
331,615	-73,9
331,822	-135,34
332,029	-39,08
332,235	51,03
332,442	-69,8
332,649	-37,03
332,856	-127,14
333,062	91,99
333,269	-14,51
333,476	51,03
333,683	24,4
333,889	132,95
334,096	-8,36
334,303	67,41
334,509	12,12
334,716	102,23
334,923	-57,51
335,129	-53,42
335,336	126,8
335,543	122,71
335,749	-14,51
335,956	173,91
336,163	-80,04
336,369	48,98
336,576	1,88
336,782	32,6
336,989	-96,43
337,196	180,05
337,402	-71,85
337,609	-192,68
337,815	-2,22
338,022	198,48
338,228	77,65
338,435	135
338,641	212,82
338,848	278,35
339,054	120,66
339,261	-53,42
339,467	-151,72
339,674	139,09
339,88	114,52
340,087	-90,28
340,293	-6,31
340,5	14,17
340,706	94,04
340,912	-172,2
341,119	-0,17
341,325	36,69
341,532	-90,28
341,738	-102,57
341,944	210,77
342,151	48,98
342,357	-67,75
342,563	61,27
342,77	67,41
342,976	-30,89
343,182	180,05
343,389	40,79
343,595	14,17
343,801	-55,47
344,007	10,07
344,214	-112,81
344,42	120,66
344,626	-37,03
344,832	-131,24
345,039	-39,08
345,245	91,99
345,451	-12,46
345,657	-0,17
345,864	-153,77
346,07	75,6
346,276	30,55
346,482	145,24
346,688	100,18
346,894	51,03
347,1	126,8
347,307	-4,27
347,513	175,95
347,719	40,79
347,925	85,84
348,131	-184,49
348,337	94,04
348,543	10,07
348,749	-55,47
348,955	120,66
349,161	-260,26
349,367	141,14
349,573	284,5
349,779	55,12
349,985	-98,47
350,191	44,88
350,397	141,14
350,603	100,18
350,809	-75,95
351,015	210,77
351,221	51,03
351,427	75,6
351,633	53,08
351,839	147,28
352,045	87,89
352,251	175,95
352,457	-67,75
352,663	137,04
352,869	40,79
353,075	34,64
353,28	-63,66
353,486	-45,23
353,692	79,7
353,898	-26,79
354,104	-55,47
354,31	155,47
354,515	-106,67
354,721	-34,99
354,927	-69,8
355,133	194,39
355,339	94,04
355,544	30,55
355,75	48,98
355,956	22,36
356,162	79,7
356,367	-118,95
356,573	69,46
356,779	-96,43
356,984	175,95
357,19	200,53
357,396	38,74
357,602	397,14
357,807	132,95
358,013	34,64
358,218	10,07
358,424	-51,37
358,63	-86,19
358,835	-69,8
359,041	-34,99
359,247	63,32
359,452	-32,94
359,658	-98,47
359,863	3,93
360,069	132,95
360,274	143,19
360,48	12,12
360,685	-26,79
360,891	255,83
361,097	-51,37
361,302	-6,31
361,508	61,27
361,713	44,88
361,918	411,47
362,124	-53,42
362,329	139,09
362,535	96,08
362,74	-59,56
362,946	-14,51
363,151	12,12
363,357	34,64
363,562	-51,37
363,767	-104,62
363,973	96,08
364,178	57,17
364,383	-86,19
364,589	-30,89
364,794	-178,34
365	278,35
365,205	227,15
365,41	-67,75
365,615	-37,03
365,821	-92,33
366,026	208,72
366,231	59,22
366,437	182,1
366,642	-219,3
366,847	167,76
367,052	-2,22
367,258	-131,24
367,463	-98,47
367,668	-28,84
367,873	69,46
368,078	116,56
368,284	-288,93
368,489	55,12
368,694	-28,84
368,899	-96,43
369,104	173,91
369,309	38,74
369,515	-22,7
369,72	42,84
369,925	-61,61
370,13	163,67
370,335	128,85
370,54	-71,85
370,745	42,84
370,95	5,97
371,155	48,98
371,36	-28,84
371,565	239,44
371,77	182,1
371,975	-176,3
372,18	106,32
372,385	257,87
372,59	190,29
372,795	-22,7
373	137,04
373,205	284,5
373,41	79,7
373,615	-84,14
373,82	-194,73
374,025	91,99
374,23	-151,72
374,435	5,97
374,64	-12,46
374,845	276,31
375,05	77,65
375,254	-4,27
375,459	-110,76
375,664	-45,23
375,869	5,97
376,074	-127,14
376,279	-20,65
376,483	18,26
376,688	-86,19
376,893	-51,37
377,098	-102,57
377,303	137,04
377,507	139,09
377,712	-4,27
377,917	132,95
378,122	196,43
378,326	5,97
378,531	-108,71
378,736	-88,23
378,94	38,74
379,145	116,56
379,35	-4,27
379,554	-22,7
379,759	-75,95
379,964	94,04
380,168	-155,82
380,373	5,97
380,578	259,92
380,782	423,76
380,987	108,37
381,191	-34,99
381,396	104,28
381,601	145,24
381,805	69,46
382,01	202,58
382,214	218,96
382,419	81,75
382,623	38,74
382,828	-20,65
383,032	34,64
383,237	-59,56
383,441	-129,19
383,646	145,24
383,85	-37,03
384,055	44,88
384,259	12,12
384,464	-186,54
384,668	-30,89
384,872	30,55
385,077	-30,89
385,281	73,56
385,486	-100,52
385,69	75,6
385,894	104,28
386,099	137,04
386,303	120,66
386,507	128,85
386,712	104,28
386,916	-129,19
387,12	-53,42
387,325	239,44
387,529	-47,27
387,733	77,65
387,937	8,02
388,142	10,07
388,346	-133,29
388,55	38,74
388,754	91,99
388,959	-67,75
389,163	36,69
389,367	-8,36
389,571	-102,57
389,775	237,39
389,98	34,64
390,184	48,98
390,388	5,97
390,592	46,93
390,796	22,36
391	-8,36
391,204	-67,75
391,409	-24,75
391,613	-49,32
391,817	-100,52
392,021	214,87
392,225	106,32
392,429	-10,41
392,633	-77,99
392,837	-30,89
393,041	98,13
393,245	16,21
393,449	-86,19
393,653	120,66
393,857	229,2
394,061	100,18
394,265	-84,14
394,469	36,69
394,673	268,11
394,877	173,91
395,081	55,12
395,285	237,39
395,489	194,39
395,693	-45,23
395,896	-0,17
396,1	180,05
396,304	214,87
396,508	-86,19
396,712	-37,03
396,916	75,6
397,12	114,52
397,323	24,4
397,527	34,64
397,731	384,85
397,935	208,72
398,139	69,46
398,342	124,76
398,546	143,19
398,75	36,69
398,954	85,84
399,157	239,44
399,361	337,74
399,565	-59,56
399,769	206,67
399,972	85,84
400,176	130,9
400,38	112,47
400,583	18,26
400,787	161,62
400,991	325,46
401,194	178
401,398	128,85
401,601	106,32
401,805	292,69
402,009	208,72
402,212	153,43
402,416	399,18
402,619	-4,27
402,823	286,54
403,026	24,4
403,23	108,37
403,433	374,61
403,637	53,08
403,841	91,99
404,044	192,34
404,247	89,94
404,451	194,39
404,654	200,53
404,858	227,15
405,061	96,08
405,265	180,05
405,468	221,01
405,672	81,75
405,875	278,35
406,078	112,47
406,282	161,62
406,485	61,27
406,689	446,29
406,892	489,29
407,095	102,23
407,299	32,6
407,502	388,94
407,705	44,88
407,909	98,13
408,112	214,87
408,315	325,46
408,518	536,4
408,722	190,29
408,925	259,92
409,128	380,75
409,331	325,46
409,535	339,79
409,738	182,1
409,941	681,8
410,144	362,32
410,347	350,03
410,551	399,18
410,754	304,98
410,957	417,61
411,16	171,86
411,363	390,99
411,566	292,69
411,769	427,85
411,973	309,07
412,176	546,64
412,379	722,76
412,582	702,28
412,785	477,01
412,988	307,02
413,191	491,34
413,394	497,49
413,597	294,74
413,8	403,28
414,003	780,11
414,206	395,09
414,409	558,92
414,612	474,96
414,815	567,12
415,018	579,4
415,221	513,87
415,424	724,81
415,627	683,85
415,83	806,73
416,033	644,94
416,235	610,12
416,438	898,89
416,641	966,47
416,844	651,08
417,047	552,78
417,25	653,13
417,453	730,95
417,655	640,84
417,858	773,96
418,061	659,28
418,264	794,44
418,467	737,1
418,669	753,48
418,872	1185,6
419,075	794,44
419,278	845,64
419,48	931,66
419,683	952,13
419,886	827,21
420,089	945,99
420,291	1021,77
420,494	898,89
420,697	1005,38
420,899	1138,5
421,102	847,69
421,305	1290,05
421,507	1181,51
421,71	1189,7
421,912	1193,8
422,115	1103,68
422,318	1339,2
422,52	1255,23
422,723	1163,08
422,925	1474,37
423,128	1462,08
423,33	1195,84
423,533	1263,43
423,735	1517,37
423,938	1435,46
424,14	1341,25
424,343	1570,62
424,545	1810,23
424,748	1670,97
424,95	1541,95
425,153	1587,01
425,355	1765,18
425,558	1859,38
425,76	1681,21
425,962	1701,69
426,165	1613,63
426,367	1857,34
426,57	1843
426,772	1791,8
426,974	2035,51
427,177	1828,67
427,379	1857,34
427,581	2156,34
427,784	2076,47
427,986	1881,91
428,188	2004,79
428,39	2092,85
428,593	2211,64
428,795	2400,05
428,997	2215,73
429,2	2129,72
429,402	2559,79
429,604	2271,03
429,806	2178,87
430,008	2535,21
430,211	2635,57
430,413	2457,39
430,615	2463,54
430,817	2621,23
431,019	2606,89
431,221	2680,62
431,423	2252,59
431,626	2479,92
431,828	2514,73
432,03	2477,87
432,232	2621,23
432,434	2811,69
432,636	2821,93
432,838	2602,8
433,04	2938,66
433,242	2852,65
433,444	2879,27
433,646	3069,73
433,848	2889,51
434,05	2912,04
434,252	2987,82
434,454	2819,88
434,656	3002,15
434,858	2971,43
435,06	3233,57
435,262	3209
435,464	3196,71
435,666	3233,57
435,868	3557,15
436,07	3522,34
436,271	3495,71
436,473	3178,28
436,675	3604,25
436,877	3395,36
437,079	3278,63
437,281	3329,83
437,482	3553,06
437,684	3444,51
437,886	3458,85
438,088	3569,44
438,29	3569,44
438,491	3600,16
438,693	3407,65
438,895	3454,75
439,097	4024,09
439,298	3714,84
439,5	3602,21
439,702	3491,62
439,903	3731,23
440,105	3755,8
440,307	4024,09
440,508	3936,03
440,71	3950,36
440,912	4081,43
441,113	3720,99
441,315	3915,55
441,517	3917,59
441,718	4249,36
441,92	3759,9
442,121	3962,65
442,323	4185,88
442,524	4101,91
442,726	4380,43
442,928	4050,71
443,129	4261,65
443,331	4116,25
443,532	4130,58
443,734	4304,66
443,935	4675,34
444,136	4118,29
444,338	4458,26
444,539	4519,7
444,741	4493,07
444,942	4548,37
445,144	4693,77
445,345	4828,94
445,546	4603,66
445,748	4671,25
445,949	4599,57
446,151	4390,67
446,352	4712,21
446,553	5080,84
446,755	4462,35
446,956	4845,32
447,157	4892,43
447,359	4914,95
447,56	4917
447,761	5029,64
447,962	5263,11
448,164	5226,25
448,365	4900,62
448,566	4968,2
448,767	4968,2
448,969	5568,26
449,17	5281,54
449,371	4957,96
449,572	5445,38
449,773	5441,28
449,974	5365,51
450,176	5431,04
450,377	5619,46
450,578	5656,32
450,779	5304,07
450,98	4921,1
451,181	5543,68
451,382	5404,42
451,583	5547,78
451,784	5586,69
451,986	5865,21
452,187	5678,85
452,388	5492,48
452,589	5560,06
452,79	6022,91
452,991	5414,66
453,192	5959,42
453,393	5840,64
453,594	6215,41
453,795	5580,54
453,995	5641,98
454,196	5756,67
454,397	5832,44
454,598	5627,65
454,799	5777,15
455	5988,09
455,201	5580,54
455,402	6047,48
455,603	5558,02
455,804	5846,78
456,004	6084,34
456,205	5754,62
456,406	5771,01
456,607	5586,69
456,808	5943,03
457,008	5482,24
457,209	5320,45
457,41	5951,23
457,611	5523,2
457,811	6164,22
458,012	5644,03
458,213	5416,71
458,414	5578,5
458,614	5666,56
458,815	5271,3
459,016	5478,15
459,216	5529,34
459,417	5355,27
459,618	5345,03
459,818	5318,4
460,019	4990,73
460,22	4996,87
460,42	5222,15
460,621	4755,21
460,821	5050,12
461,022	5134,09
461,223	4585,23
461,423	4630,29
461,624	4693,77
461,824	4687,63
462,025	4452,11
462,225	4448,02
462,426	4865,8
462,626	4445,97
462,827	4441,87
463,027	4445,97
463,228	4476,69
463,428	4300,56
463,628	4249,36
463,829	4503,31
464,029	4050,71
464,23	4103,96
464,43	4175,64
464,63	3874,59
464,831	3768,09
465,031	3954,46
465,231	3700,51
465,432	3946,27
465,632	4359,95
465,832	3442,46
466,033	3778,33
466,233	3651,36
466,433	4036,38
466,634	3778,33
466,834	3704,6
467,034	3446,56
467,234	3870,49
467,435	3591,97
467,635	3448,61
467,835	3225,38
468,035	3641,12
468,235	3446,56
468,436	3520,29
468,636	3391,27
468,836	3161,89
469,036	3632,93
469,236	3413,79
469,436	3340,07
469,636	3665,69
469,836	3200,8
470,037	3249,96
470,237	3184,42
470,437	3454,75
470,637	3243,81
470,837	3305,25
471,037	3352,35
471,237	3233,57
471,437	3319,59
471,637	3196,71
471,837	3211,04
472,037	3209
472,237	3221,28
472,437	3047,21
472,637	3385,12
472,837	3364,64
473,036	3233,57
473,236	3233,57
473,436	3110,69
473,636	3233,57
473,836	3018,54
474,036	3211,04
474,236	3092,26
474,436	3182,37
474,635	3395,36
474,835	3233,57
475,035	3344,16
475,235	3252
475,435	3237,67
475,634	3198,76
475,834	3323,68
476,034	3497,76
476,234	3114,79
476,433	3161,89
476,633	3397,41
476,833	3233,57
477,033	3192,61
477,232	3147,56
477,432	3174,18
477,632	3581,73
477,831	3264,29
478,031	3196,71
478,231	3268,39
478,43	3385,12
478,63	3237,67
478,829	2983,72
479,029	3260,2
479,229	3133,22
479,428	2998,06
479,628	3254,05
479,827	3360,55
480,027	3233,57
480,226	3735,32
480,426	3299,11
480,625	3239,72
480,825	3403,55
481,024	3360,55
481,224	3503,9
481,423	3131,17
481,623	3630,88
481,822	3018,54
482,021	3430,18
482,221	3434,27
482,42	3583,77
482,62	3538,72
482,819	3135,27
483,018	3213,09
483,218	3217,19
483,417	3696,41
483,616	3288,87
483,816	3542,82
484,015	3518,24
484,214	3594,01
484,414	3528,48
484,613	3323,68
484,812	3452,7
485,011	3252
485,211	3569,44
485,41	3483,42
485,609	3374,88
485,808	3495,71
486,008	3546,91
486,207	3389,22
486,406	3555,1
486,605	3436,32
486,804	3471,14
487,003	3348,26
487,203	3585,82
487,402	3471,14
487,601	3569,44
487,8	3671,84
487,999	3768,09
488,198	3968,79
488,397	3657,5
488,596	3565,34
488,795	3688,22
488,994	3815,2
489,193	3520,29
489,392	3737,37
489,591	3647,26
489,79	3786,52
489,989	3786,52
490,188	3774,24
490,387	3944,22
490,586	3772,19
490,785	3847,96
490,984	3858,2
491,183	3874,59
491,382	3991,32
491,581	3987,22
491,779	3878,68
491,978	4034,33
492,177	4339,48
492,376	4022,04
492,575	3987,22
492,774	4052,76
492,972	3903,26
493,171	3976,98
493,37	4060,95
493,569	4368,15
493,768	4353,81
493,966	4114,2
494,165	4196,12
494,364	4615,95
494,563	4429,59
494,761	4189,97
494,96	4314,9
495,159	4388,63
495,357	4237,08
495,556	4327,19
495,755	4417,3
495,953	4439,83
496,152	4435,73
496,35	4556,56
496,549	4366,1
496,748	4757,26
496,946	4751,12
497,145	4462,35
497,343	4599,57
497,542	4470,55
497,74	4843,28
497,939	4816,65
498,137	4816,65
498,336	4871,95
498,534	4904,71
498,733	4806,41
498,931	4865,8
499,13	4663,05
499,328	4968,2
499,527	5189,38
499,725	5021,45
499,924	4986,63
500,122	4884,23
500,32	5310,21
500,519	5170,95
500,717	5281,54
500,915	5150,47
501,114	5308,16
501,312	5451,52
501,51	5402,37
501,709	5480,19
501,907	5822,2
502,105	5488,39
502,304	5881,6
502,502	5895,93
502,7	5754,62
502,898	5764,86
503,097	6022,91
503,295	6100,73
503,493	6338,29
503,691	6278,9
503,889	6143,74
504,088	6430,45
504,286	6641,39
504,484	6586,1
504,682	6659,82
504,88	6754,03
505,078	7093,99
505,276	6833,9
505,474	7419,62
505,672	7067,37
505,871	7499,49
506,069	7454,44
506,267	7608,03
506,465	7952,09
506,663	7562,98
506,861	7829,21
507,059	8140,51
507,257	8163,03
507,455	8281,81
507,653	8300,25
507,851	8584,91
508,049	8466,13
508,246	8912,59
508,444	8867,53
508,642	9039,56
508,84	9187,02
509,038	9293,51
509,236	9533,12
509,434	9324,23
509,632	10133,18
509,829	10057,4
510,027	9791,17
510,225	10430,13
510,423	10516,15
510,621	10477,24
510,818	10995,37
511,016	11136,68
511,214	11263,66
511,412	11341,48
511,609	11615,91
511,807	11845,28
512,005	12209,82
512,203	12338,84
512,4	12476,05
512,598	12773,01
512,796	12983,95
512,993	12809,87
513,191	13352,59
513,389	13571,72
513,586	14165,63
513,784	14233,21
513,981	14354,04
514,179	14911,09
514,377	14743,16
514,574	15107,69
514,772	14935,67
514,969	15906,4
515,167	15636,07
515,364	16113,25
515,562	16150,11
515,759	16879,19
515,957	16715,35
516,154	17249,87
516,352	17419,85
516,549	17925,7
516,746	18050,63
516,944	18308,67
517,141	18730,55
517,339	19109,43
517,536	19394,09
517,733	19586,6
517,931	19906,09
518,128	20543
518,325	20878,87
518,523	21132,82
518,72	20829,72
518,917	21841,42
519,115	21972,49
519,312	22001,16
519,509	22488,57
519,707	23096,82
519,904	23100,92
520,101	23793,13
520,298	24112,61
520,495	24577,5
520,693	24301,03
520,89	25200,08
521,087	24905,18
521,284	26398,15
521,481	26291,65
521,678	26187,21
521,876	26314,18
522,073	27299,25
522,27	27604,4
522,467	27817,39
522,664	27872,68
522,861	28810,65
523,058	28462,5
523,255	28999,07
523,452	29496,72
523,649	29705,62
523,846	29951,37
524,043	30598,53
524,24	30936,45
524,437	31208,83
524,634	31384,95
524,831	31507,83
525,028	31980,91
525,225	32580,96
525,422	33058,14
525,619	33052
525,816	33023,33
526,013	34137,42
526,209	34352,46
526,406	34688,32
526,603	34624,84
526,8	35001,66
526,997	35083,58
527,194	36058,42
527,39	35902,77
527,587	36240,68
527,784	36879,65
527,981	37223,71
528,177	37999,89
528,374	38042,9
528,571	38333,71
528,768	38915,33
528,964	38966,53
529,161	39711,99
529,358	39970,04
529,554	39689,46
529,751	40031,47
529,948	40408,3
530,144	40500,46
530,341	41043,17
530,537	41467,1
530,734	41841,88
530,931	41503,96
531,127	42024,15
531,324	42323,15
531,52	42546,38
531,717	43015,36
531,913	43297,98
532,11	43676,86
532,306	44522,67
532,503	44694,7
532,699	44577,97
532,896	45268,13
533,092	45403,3
533,289	45575,33
533,485	45931,67
533,682	45911,19
533,878	46652,56
534,074	46234,77
534,271	47492,22
534,467	47316,1
534,664	47879,29
534,86	47717,5
535,056	48114,81
535,253	47819,9
535,449	48833,64
535,645	48563,31
535,841	48929,9
536,038	48594,03
536,234	49007,72
536,43	49652,83
536,626	50150,49
536,823	49976,41
537,019	50531,41
537,215	50496,59
537,411	50699,34
537,607	50648,14
537,804	51383,37
538	51289,16
538,196	51149,9
538,392	51498,05
538,588	52143,16
538,784	52456,5
538,98	52608,05
539,176	52669,49
539,373	53539,88
539,569	53494,82
539,765	53716
539,961	54101,02
540,157	54363,16
540,353	54047,77
540,549	55032,85
540,745	54008,86
540,941	54475,8
541,137	54406,17
541,333	55233,55
541,528	55401,48
541,724	55991,29
541,92	56048,64
542,116	55757,83
542,312	55786,5
542,508	56531,96
542,704	56703,99
542,9	56736,76
543,096	56937,46
543,291	57400,3
543,487	56880,11
543,683	56415,22
543,879	56613,88
544,075	56810,48
544,27	57803,75
544,466	57451,5
544,662	57566,18
544,858	58368,99
545,053	58063,84
545,249	58190,81
545,445	58215,39
545,64	57998,3
545,836	58424,28
546,032	58711
546,227	58559,45
546,423	59229,13
546,619	59096,02
546,814	59753,41
547,01	59542,47
547,205	59821
547,401	59513,8
547,597	60347,32
547,792	59587,53
547,988	60349,37
548,183	59775,94
548,379	60292,03
548,574	59761,61
548,77	60408,76
548,965	60253,12
549,161	60660,66
549,356	60388,28
549,552	61301,68
549,747	60974
549,942	61037,49
550,138	60920,76
550,333	60709,81
550,529	61135,79
550,724	61219,76
550,919	61236,14
551,115	62020,51
551,31	61744,04
551,505	62165,92
551,701	62061,47
551,896	62116,77
552,091	62430,11
552,287	62262,18
552,482	62299,04
552,677	62247,84
552,872	62165,92
553,067	62098,34
553,263	62104,48
553,458	62149,54
553,653	61936,55
553,848	62055,33
554,043	61645,74
554,239	62012,32
554,434	62000,04
554,629	62290,85
554,824	62208,93
555,019	62403,49
555,214	62628,76
555,409	62684,06
555,604	62952,34
555,799	62942,1
555,994	62931,86
556,189	62864,28
556,384	63130,51
556,579	63026,07
556,774	63124,37
556,969	63230,86
557,164	63114,13
557,359	63312,78
557,554	62913,43
557,749	62981,01
557,944	62915,48
558,139	62989,2
558,334	62968,72
558,529	63099,79
558,724	63052,69
558,918	63110,03
559,113	63163,28
559,308	63175,57
559,503	63071,12
559,698	62985,11
559,893	62989,2
560,087	62808,98
560,282	62657,43
560,477	62913,43
560,672	62696,34
560,866	62935,96
561,061	62757,78
561,256	63165,33
561,45	62819,22
561,645	63208,34
561,84	63105,94
562,034	63439,76
562,229	63345,55
562,424	63529,87
562,618	63454,09
562,813	63683,47
563,008	63394,7
563,202	63740,81
563,397	63462,28
563,591	63626,12
563,786	63380,37
563,98	63419,28
564,175	63249,3
564,369	63433,61
564,564	63282,06
564,758	63454,09
564,953	63187,86
565,147	63505,29
565,342	63265,68
565,536	63628,17
565,731	63089,55
565,925	63671,18
566,119	63112,08
566,314	63613,83
566,508	63216,53
566,703	63527,82
566,897	63232,91
567,091	63413,13
567,286	62991,25
567,48	63331,21
567,674	63030,16
567,868	63644,55
568,063	63150,99
568,257	63816,58
568,451	63331,21
568,646	63873,93
568,84	63304,59
569,034	63794,06
569,228	63388,56
569,422	63527,82
569,616	63216,53
569,811	63314,83
570,005	62929,81
570,199	63103,89
570,393	62819,22
570,587	63085,46
570,781	62899,09
570,975	62950,29
571,169	62856,09
571,364	63005,59
571,558	62868,37
571,752	63101,84
571,946	62720,92
572,14	63226,77
572,334	62759,83
572,528	63361,93
572,722	62741,4
572,916	63230,86
573,109	62716,82
573,303	63052,69
573,497	62774,17
573,691	63136,66
573,885	62514,08
574,079	63159,19
574,273	62479,26
574,467	63167,38
574,661	62512,03
574,854	62962,58
575,048	62557,08
575,242	62686,1
575,436	62479,26
575,63	62729,11
575,823	62399,39
576,017	62811,03
576,211	62151,58
576,405	62925,72
576,598	61914,02
576,792	62718,87
576,986	61856,68
577,18	62290,85
577,373	61920,16
577,567	62108,58
577,761	62303,13
577,954	62405,53
578,148	62161,82
578,341	62628,76
578,535	62159,78
578,729	62462,88
578,922	61897,64
579,116	62241,7
579,309	61365,16
579,503	62112,67
579,696	61397,93
579,89	62178,21
580,083	61545,39
580,277	61889,44
580,47	61479,85
580,664	61692,84
580,857	61582,25
581,051	61344,69
581,244	61498,28
581,437	61770,66
581,631	61756,33
581,824	61952,93
582,018	61954,98
582,211	62131,11
582,404	61903,78
582,598	61840,29
582,791	62028,71
582,984	61545,39
583,178	61887,4
583,371	61117,36
583,564	61533,1
583,757	61569,96
583,951	61490,09
584,144	61127,6
584,337	60976,05
584,53	61240,24
584,723	61031,35
584,917	61207,47
585,11	60672,95
585,303	61410,22
585,496	60609,46
585,689	61158,32
585,882	60695,48
586,075	61146,03
586,268	60558,27
586,462	60738,49
586,655	60484,54
586,848	60955,57
587,041	60357,56
587,234	60804,02
587,427	60294,08
587,62	60756,92
587,813	59968,45
588,006	60472,25
588,199	59945,92
588,392	60005,31
588,585	59859,91
588,777	59720,65
588,97	59382,73
589,163	60160,96
589,356	59712,45
589,549	59675,59
589,742	59407,31
589,935	59454,41
590,128	59550,66
590,32	59554,76
590,513	59562,95
590,706	59816,9
590,899	59059,15
591,092	59399,11
591,284	58989,52
591,477	59423,69
591,67	58981,33
591,863	58784,72
592,055	58772,44
592,248	59112,4
592,441	58868,69
592,633	59222,99
592,826	58633,17
593,019	59198,41
593,211	59026,38
593,404	58577,88
593,596	59145,17
593,789	58866,64
593,982	59251,66
594,174	59108,3
594,367	58940,37
594,559	59053,01
594,752	57934,82
594,944	58092,51
595,137	57951,2
595,329	57736,16
595,522	58082,27
595,714	57758,69
595,907	57932,77
596,099	57740,26
596,292	57615,33
596,484	57574,37
596,676	57086,96
596,869	57402,35
597,061	57564,13
597,253	57531,37
597,446	57013,23
597,638	58147,81
597,83	57412,59
598,023	57711,59
598,215	57433,06
598,407	57279,47
598,6	56783,86
598,792	57105,39
598,984	56865,78
599,176	56773,62
599,369	57048,05
599,561	57209,84
599,753	55565,32
599,945	56638,45
600,137	55837,7
600,329	55847,94
600,522	55335,94
600,714	55237,64
600,906	55243,79
601,098	55325,71
601,29	54995,98
601,482	54877,2
601,674	55596,04
601,866	55401,48
602,058	55100,43
602,25	55184,4
602,442	55288,84
602,634	55114,76
602,826	54498,33
603,018	54215,71
603,21	54475,8
603,402	54379,54
603,594	53756,96
603,786	54598,68
603,978	54103,07
604,17	54109,21
604,362	53615,65
604,554	53351,46
604,745	53548,07
604,937	53943,33
605,129	53111,85
605,321	53586,98
605,513	52962,35
605,704	53550,12
605,896	53038,12
606,088	53001,26
606,28	52810,8
606,471	52794,42
606,663	52169,79
606,855	52143,16
607,047	52393,01
607,238	52634,67
607,43	51526,72
607,622	53029,93
607,813	52175,93
608,005	52020,28
608,197	51534,91
608,388	51936,32
608,58	50871,37
608,771	51518,53
608,963	50787,41
609,154	51315,78
609,346	50576,47
609,537	50433,11
609,729	50355,28
609,921	51205,19
610,112	50334,81
610,303	50140,25
610,495	49593,44
610,686	49925,21
610,878	48964,71
611,069	48516,21
611,261	48407,67
611,452	48479,35
611,643	48426,1
611,835	48221,3
612,026	47570,05
612,217	48604,27
612,409	48034,94
612,6	47508,61
612,791	46802,06
612,983	47432,83
613,174	47744,12
613,365	47275,14
613,557	46763,15
613,748	47236,23
613,939	46951,56
614,13	47096,97
614,321	46738,57
614,513	47649,92
614,704	46843,02
614,895	46431,38
615,086	45720,73
615,277	46193,81
615,468	45579,42
615,659	45714,59
615,851	45493,41
616,042	45747,36
616,233	45204,64
616,424	45796,51
616,615	45522,08
616,806	45388,96
616,997	45012,13
617,188	45941,91
617,379	45792,41
617,57	45958,3
617,761	46070,93
617,952	46021,78
618,143	45440,16
618,334	45264,03
618,524	45571,23
618,715	44991,65
618,906	44932,26
619,097	44688,56
619,288	45522,08
619,479	45331,62
619,67	45169,83
619,86	45096,1
620,051	45585,57
620,242	45302,95
620,433	44723,37
620,624	45560,99
620,814	45546,65
621,005	44903,59
621,196	45151,4
621,386	45460,64
621,577	45509,79
621,768	45261,99
621,958	45061,29
622,149	45444,26
622,34	44967,08
622,53	44690,6
622,721	44606,64
622,912	45573,28
623,102	45874,33
623,293	45792,41
623,483	45997,21
623,674	46103,7
623,864	45960,34
624,055	45016,23
624,245	45554,85
624,436	45741,21
624,626	44944,55
624,817	45186,21
625,007	44817,58
625,198	45462,69
625,388	44950,7
625,579	45278,37
625,769	45165,73
625,959	45767,83
626,15	45294,75
626,34	45296,8
626,531	45591,71
626,721	46083,22
626,911	45130,92
627,101	45233,32
627,292	45155,49
627,482	45186,21
627,672	44989,61
627,863	45003,94
628,053	45284,51
628,243	45370,53
628,433	44682,41
628,623	44489,9
628,814	44342,45
629,004	44244,15
629,194	44188,85
629,384	43838,65
629,574	43787,45
629,764	44002,49
629,955	43910,33
630,145	44033,21
630,335	43769,02
630,525	43711,67
630,715	43144,39
630,905	43320,51
631,095	42345,68
631,285	43179,2
631,475	42026,2
631,665	42906,82
631,855	42007,76
632,045	42435,79
632,235	42142,93
632,425	41581,79
632,615	41643,23
632,805	41831,64
632,994	41671,9
633,184	42489,04
633,374	41852,12
633,564	41647,32
633,754	41598,17
633,944	41006,31
634,133	40578,28
634,323	41501,92
634,513	40742,12
634,703	40516,84
634,893	40512,75
635,082	40901,86
635,272	40826,09
635,462	41131,23
635,651	40473,84
635,841	40672,49
636,031	39777,53
636,221	39554,3
636,41	39595,26
636,6	39615,74
636,789	39535,87
636,979	39439,61
637,169	39300,35
637,358	38952,19
637,548	39617,78
637,737	38853,89
637,927	38608,14
638,116	39425,28
638,306	38757,64
638,495	39025,92
638,685	38135,06
638,874	38202,64
639,064	37975,31
639,253	37969,17
639,443	37987,6
639,632	37887,25
639,822	37289,24
640,011	37700,89
640,2	37367,07
640,39	37395,74
640,579	37068,06
640,768	36902,18
640,958	36666,66
641,147	36662,57
641,336	36703,53
641,526	36779,3
641,715	36312,36
641,904	37059,87
642,093	35718,45
642,283	36349,23
642,472	35411,26
642,661	35503,42
642,85	35677,49
643,039	35390,78
643,228	35591,48
643,418	35185,98
643,607	35163,45
643,796	34778,43
643,985	34364,74
644,174	34827,59
644,363	34717
644,552	34680,13
644,741	33908,05
644,93	34051,41
645,119	33752,4
645,308	34219,34
645,497	33805,65
645,686	33693,01
645,875	33713,49
646,064	33256,79
646,253	33197,4
646,442	33789,27
646,631	33625,43
646,82	33207,64
647,009	32882,02
647,198	33242,46
647,387	32988,51
647,575	32529,76
647,764	32769,38
647,953	32763,23
648,142	32372,07
648,331	32386,41
648,519	31997,29
648,708	32654,69
648,897	31331,7
649,086	32214,38
649,274	31901,04
649,463	31765,87
649,652	31862,13
649,84	31442,29
650,029	31120,76
650,218	31522,16
650,406	31456,63
650,595	30350,73
650,784	30725,5
650,972	30621,06
651,161	30141,83
651,349	30571,91
651,538	30299,53
651,726	30352,77
651,915	29910,41
652,104	29273,49
652,292	29017,5
652,481	29439,38
652,669	29621,65
652,857	29574,55
653,046	29697,42
653,234	29771,15
653,423	29572,5
653,611	28921,24
653,8	28786,08
653,988	29222,3
654,176	28775,84
654,365	28564,9
654,553	28356
654,741	28528,03
654,93	27940,27
655,118	27919,79
655,306	28102,06
655,494	27880,88
655,683	27674,03
655,871	27647,41
656,059	27522,48
656,247	27927,98
656,436	27172,28
656,624	26881,47
656,812	27004,35
657	27221,43
657,188	26856,89
657,376	26783,16
657,564	26713,53
657,753	27182,52
657,941	26633,66
658,129	26701,25
658,317	26428,87
658,505	26074,57
658,693	26588,61
658,881	26234,31
659,069	25640,4
659,257	25812,43
659,445	25998,79
659,633	25785,8
659,821	25382,35
660,009	25656,78
660,197	25591,25
660,384	25513,42
660,572	25234,9
660,76	25470,42
660,948	25300,44
661,136	24702,43
661,324	24681,95
661,512	25615,82
661,699	25234,9
661,887	25075,16
662,075	24690,14
662,263	24559,07
662,451	24503,78
662,638	24141,28
662,826	24079,85
663,014	24481,25
663,201	24051,17
663,389	23858,67
663,577	23725,55
663,764	24378,85
663,952	23543,28
664,14	23625,2
664,327	23639,53
664,515	23569,9
664,702	23401,97
664,89	23049,72
665,078	22961,65
665,265	22867,45
665,453	22746,62
665,64	22281,73
665,828	22173,19
666,015	22205,95
666,203	22199,81
666,39	22380,03
666,578	22138,37
666,765	22371,84
666,952	22414,85
667,14	22429,18
667,327	21962,25
667,515	22165
667,702	21714,44
667,889	21605,9
668,077	21470,73
668,264	22007,3
668,451	21716,49
668,638	21589,52
668,826	20846,1
669,013	21024,28
669,2	20758,04
669,388	20497,95
669,575	20430,37
669,762	20151,84
669,949	20471,32
670,136	25056,73
670,323	20256,29
670,511	20198,95
670,698	20137,51
670,885	19869,22
671,072	19762,73
671,259	20246,05
671,446	19957,28
671,633	19676,71
671,82	19430,96
672,007	19582,51
672,194	19637,8
672,381	19330,61
672,568	19383,85
672,755	19680,81
672,942	19404,33
673,129	19115,57
673,316	19156,53
673,503	19326,51
673,69	19193,39
673,877	19004,98
674,064	18642,49
674,251	18685,5
674,437	18609,72
674,624	18626,11
674,811	18357,82
674,998	18531,9
675,185	18271,81
675,372	18384,44
675,558	18402,88
675,745	18331,2
675,932	18185,79
676,119	17911,36
676,305	17739,33
676,492	18118,21
676,679	17907,27
676,865	17569,35
677,052	17520,2
677,239	17604,17
677,425	17636,94
677,612	17436,24
677,798	17057,36
677,985	17690,18
678,172	17202,77
678,358	16871
678,545	16721,49
678,731	16772,69
678,918	16680,53
679,104	16438,87
679,291	16682,58
679,477	16664,15
679,664	16164,45
679,85	16219,74
680,036	16068,19
680,223	15623,78
680,409	15775,33
680,596	15650,41
680,782	15867,49
680,968	15822,44
681,155	15349,36
681,341	15603,3
681,527	15189,61
681,714	15425,13
681,9	15095,41
682,086	15294,06
682,272	15246,96
682,459	15095,41
682,645	15429,23
682,831	14837,36
683,017	14724,72
683,204	15375,98
683,39	15199,85
683,576	14925,43
683,762	14716,53
683,948	14870,13
684,134	14536,31
684,32	14431,87
684,506	14345,85
684,693	14739,06
684,879	14009,98
685,065	14126,72
685,251	13764,23
685,437	14141,05
685,623	14001,79
685,809	14192,25
685,995	13541
686,181	13858,43
686,366	13852,29
686,552	13475,46
686,738	13002,38
686,924	13510,28
687,11	13141,64
687,296	13174,41
687,482	13217,42
687,668	12854,93
687,853	12887,7
688,039	12965,52
688,225	12650,13
688,411	13039,25
688,597	13059,73
688,782	12611,22
688,968	12615,32
689,154	12594,84
689,34	13035,15
689,525	13000,33
689,711	12500,63
689,897	12848,79
690,082	12641,94
690,268	12492,44
690,454	12191,39
690,639	12244,63
690,825	12467,86
691,01	12179,1
691,196	11845,28
691,381	12330,65
691,567	11826,85
691,753	11861,66
691,938	11591,33
692,124	11646,63
692,309	11638,44
692,494	11654,82
692,68	11564,71
692,865	11677,35
693,051	11558,56
693,236	11329,19
693,422	11277,99
693,607	11611,81
693,792	11245,23
693,978	11065
694,163	10895,02
694,348	11056,81
694,534	11056,81
694,719	11069,1
694,904	10884,78
695,089	10991,28
695,275	11034,28
695,46	10770,1
695,645	10978,99
695,83	10817,2
696,016	10587,83
696,201	10356,41
696,386	10577,59
696,571	10688,18
696,756	10135,23
696,941	10759,86
697,126	10000,06
697,311	10342,07
697,497	10358,46
697,682	10032,83
697,867	10153,66
698,052	10178,23
698,237	10151,61
698,422	9742,02
698,607	9793,22
698,792	9764,54
698,977	9748,16
699,162	9739,97
699,347	9383,62
699,531	9793,22
699,716	9529,03
699,901	9090,76
700,086	9320,14
700,271	9410,25
700,456	9565,89
700,641	9217,74
700,825	8931,02
701,01	9225,93
701,195	9096,91
701,38	8926,93
701,565	8777,42
701,749	8965,84
701,934	8752,85
702,119	8685,26
702,303	8634,07
702,488	8707,79
702,673	9012,94
702,857	8652,5
703,042	8351,45
703,227	8906,45
703,411	8533,72
703,596	8672,98
703,78	8507,09
703,965	8343,25
704,15	8449,75
704,334	8277,72
704,519	7927,52
704,703	8310,49
704,888	8287,96
705,072	7943,9
705,257	7923,42
705,441	7956,19
705,625	8693,46
705,81	8029,91
705,994	7638,75
706,179	7974,62
706,363	8023,77
706,547	8101,59
706,732	7925,47
706,916	8089,31
707,1	8056,54
707,285	7831,26
707,469	7462,63
707,653	7911,13
707,837	7655,14
708,022	7679,71
708,206	7538,4
708,39	7448,29
708,574	7386,85
708,759	7481,06
708,943	7196,39
709,127	7548,64
709,311	7257,83
709,495	6975,21
709,679	7180,01
709,863	7173,86
710,047	7227,11
710,231	7059,18
710,415	6928,11
710,6	7114,47
710,784	6878,96
710,968	6792,94
711,152	6868,72
711,336	6883,05
711,519	7128,81
711,703	6979,31
711,887	6686,45
712,071	6633,2
712,255	6387,44
712,439	6768,37
712,623	6477,55
712,807	6534,9
712,991	6782,7
713,174	6493,94
713,358	6561,52
713,542	6561,52
713,726	6713,07
713,91	6305,53
714,093	6213,37
714,277	6498,03
714,461	6475,51
714,645	6110,97
714,828	6002,43
715,012	6254,33
715,196	5908,22
715,379	5881,6
715,563	5826,3
715,747	6031,1
715,93	5797,63
716,114	5742,33
716,297	5641,98
716,481	5695,23
716,664	5943,03
716,848	5664,51
717,031	5598,98
717,215	5490,43
717,398	5789,44
717,582	5568,26
717,765	5654,27
717,949	5553,92
718,132	5699,33
718,316	5244,68
718,499	5332,74
718,682	5740,29
718,866	5404,42
719,049	5345,03
719,233	5197,57
719,416	5519,11
719,599	5732,09
719,782	5029,64
719,966	4935,43
720,149	5003,02
720,332	5408,51
720,515	4968,2
720,699	4982,54
720,882	5230,34
721,065	5048,07
721,248	4923,15
721,431	4806,41
721,615	4945,67
721,798	5027,59
721,981	4867,85
722,164	4679,44
722,347	5082,89
722,53	5240,58
722,713	4718,35
722,896	4566,8
723,079	4863,76
723,262	4775,69
723,445	4626,19
723,628	4429,59
723,811	4759,31
723,994	4654,86
724,177	4609,81
724,36	4402,96
724,543	4767,5
724,726	4417,3
724,909	4456,21
725,091	4542,22
725,274	4409,11
725,457	4419,35
725,64	4261,65
725,823	4300,56
726,006	4202,26
726,188	4417,3
726,371	4640,53
726,554	4185,88
726,737	4488,98
726,919	4347,67
727,102	4341,52
727,285	4017,94
727,467	4427,54
727,65	4362
727,833	4132,63
728,015	4005,66
728,198	4146,97
728,38	4030,23
728,563	3987,22
728,746	3802,91
728,928	4128,53
729,111	4001,56
729,293	3870,49
729,476	3999,51
729,658	3970,84
729,841	4009,75
730,023	4052,76
730,205	3673,89
730,388	3890,97
730,57	4157,21
730,753	3917,59
730,935	3837,72
731,117	4407,06
731,3	3708,7
731,482	3829,53
731,664	3729,18
731,847	3841,82
732,029	3917,59
732,211	3655,45
732,394	3356,45
732,576	3626,78
732,758	3718,94
732,94	3647,26
733,122	3632,93
733,305	3948,31
733,487	3495,71
733,669	3526,43
733,851	3348,26
734,033	3510,05
734,215	3669,79
734,397	3366,69
734,58	3448,61
734,762	3485,47
734,944	3610,4
735,126	3295,01
735,308	3421,99
735,49	3307,3
735,672	3395,36
735,854	3176,23
736,036	3340,07
736,218	3659,55
736,399	3370,79
736,581	3264,29
736,763	3110,69
736,945	3512,1
737,127	3131,17
737,309	3170,08
737,491	3120,93
737,672	3221,28
737,854	3202,85
738,036	3006,25
738,218	2967,34
738,4	2797,35
738,581	3299,11
738,763	2877,23
738,945	2832,17
739,127	3053,35
739,308	2953
739,49	2969,38
739,672	2963,24
739,853	3110,69
740,035	2981,67
740,216	2776,87
740,398	2715,44
740,58	2940,71
740,761	2973,48
740,943	2748,2
741,124	2711,34
741,306	2842,41
741,487	2809,64
741,669	2797,35
741,85	2594,61
742,032	2811,69
742,213	2674,48
742,394	2606,89
742,576	2682,67
742,757	2969,38
742,939	2852,65
743,12	2565,93
743,301	2619,18
743,483	2580,27
743,664	2502,45
743,845	2582,32
744,027	2408,24
744,208	2506,54
744,389	2545,45
744,57	2391,86
744,752	2408,24
744,933	2463,54
745,114	2490,16
745,295	2301,75
745,476	2447,15
745,657	2492,21
745,839	2260,79
746,02	2408,24
746,201	2494,26
746,382	2666,28
746,563	2805,55
746,744	2238,26
746,925	2232,12
747,106	2578,22
747,287	2445,1
747,468	2291,51
747,649	2354,99
747,83	2527,02
748,011	2508,59
748,192	2367,28
748,373	2131,76
748,554	2203,44
748,735	2379,57
748,915	2174,77
749,096	2139,96
749,277	2430,77
749,458	2488,11
749,639	2195,25
749,82	2266,93
750	2195,25
750,181	2369,33
750,362	2146,1
750,543	2381,62
750,723	2287,41
750,904	2350,9
751,085	2049,85
751,265	2139,96
751,446	2176,82
751,627	2230,07
751,807	2115,38
751,988	1951,54
752,169	2297,65
752,349	2230,07
752,53	2078,52
752,71	1982,26
752,891	2436,91
753,071	2348,85
753,252	1920,82
753,432	2041,65
753,613	2217,78
753,793	2242,36
753,974	1851,19
754,154	2121,52
754,334	2283,31
754,515	2197,3
754,695	2254,64
754,876	2152,24
755,056	2428,72
755,236	2178,87
755,417	2125,62
755,597	2092,85
755,777	2148,15
755,957	2172,72
756,138	1963,83
756,318	1986,36
756,498	2322,23
756,678	2131,76
756,859	2045,75
757,039	2107,19
757,219	2297,65
757,399	2158,39
757,579	2094,9
757,759	1933,11
757,939	1935,16
758,119	2215,73
758,3	1994,55
758,48	1918,78
758,66	1978,17
758,84	1906,49
759,02	1935,16
759,2	1668,92
759,38	1922,87
759,56	2000,69
759,74	1867,58
759,919	1599,29
760,099	2207,54
760,279	2092,85
760,459	2029,37
760,639	1771,32
760,819	1965,88
760,999	1603,39
761,178	1738,55
761,358	1746,75
761,538	1709,88
761,718	1808,19
761,898	1558,33
762,077	1668,92
762,257	1845,05
762,437	1914,68
762,616	1691,45
762,796	1517,37
762,976	1795,9
763,155	1765,18
763,335	1531,71
763,515	1720,12
763,694	1976,12
763,874	1720,12
764,053	1689,4
764,233	1556,29
764,413	1562,43
764,592	1711,93
764,772	1599,29
764,951	1476,41
765,131	1636,16
765,31	1754,94
765,489	1455,94
765,669	1376,06
765,848	1804,09
766,028	1554,24
766,207	1269,57
766,386	1322,82
766,566	1488,7
766,745	1587,01
766,924	1474,37
767,104	1320,77
767,283	1378,11
767,462	1597,24
767,642	1271,62
767,821	1158,98
768	1267,52
768,179	1390,4
768,358	1312,58
768,538	1312,58
768,717	1298,24
768,896	1234,75
769,075	1453,89
769,254	1101,64
769,433	1492,8
769,612	1396,54
769,791	1099,59
769,97	1115,97
770,149	1396,54
770,328	1216,32
770,507	1085,25
770,686	1017,67
770,865	1429,31
771,044	1347,39
771,223	1111,88
771,402	1042,25
771,581	1283,91
771,76	1107,78
771,939	1175,36
772,118	956,23
772,297	1208,13
772,475	1140,55
772,654	1230,66
772,833	1046,34
773,012	1447,74
773,191	1308,48
773,369	1093,44
773,548	978,76
773,727	808,78
773,906	1455,94
774,084	952,13
774,263	792,39
774,442	1095,49
774,62	1009,48
774,799	784,2
774,977	991,05
775,156	1308,48
775,335	1269,57
775,513	927,56
775,692	755,53
775,87	1539,9
776,049	888,65
776,227	800,59
776,406	890,7
776,584	880,46
776,763	1095,49
776,941	714,57
777,119	788,3
777,298	898,89
777,476	1191,75
777,655	786,25
777,833	622,41
778,011	1038,15
778,19	972,61
778,368	833,35
778,546	642,89
778,725	1113,92
778,903	857,93
779,081	755,53
779,259	718,67
779,437	913,22
779,616	812,87
779,794	716,62
779,972	804,68
780,15	853,83
780,328	724,81
780,506	646,99
780,685	681,8
780,863	737,1
781,041	640,84
781,219	638,8
781,397	857,93
781,575	724,81
781,753	786,25
781,931	556,88
782,109	526,16
782,287	694,09
782,465	855,88
782,643	612,17
782,82	569,16
782,998	982,85
783,176	929,61
783,354	575,31
783,532	591,69
783,71	776,01
783,888	714,57
784,065	542,54
784,243	558,92
784,421	700,23
784,599	814,92
784,776	585,55
784,954	483,15
785,132	618,32
785,31	616,27
785,487	489,29
785,665	532,3
785,842	651,08
786,02	1177,41
786,198	407,38
786,375	454,48
786,553	659,28
786,73	626,51
786,908	390,99
787,085	503,63
787,263	563,02
787,44	653,13
787,618	489,29
787,795	341,84
787,973	401,23
788,15	708,43
788,328	487,25
788,505	499,53
788,682	585,55
788,86	581,45
789,037	425,81
789,215	440,14
789,392	413,52
789,569	741,19
789,746	403,28
789,924	403,28
790,101	714,57
790,278	749,39
790,455	339,79
790,633	436,05
790,81	626,51
790,987	505,68
791,164	481,1
791,341	300,88
791,518	259,92
791,695	524,11
791,873	397,14
792,05	253,78
792,227	436,05
792,404	436,05
792,581	388,94
792,758	386,9
792,935	405,33
793,112	612,17
793,289	368,46
793,466	474,96
793,643	313,17
793,82	362,32
793,996	325,46
794,173	223,06
794,35	196,43
794,527	722,76
794,704	393,04
794,881	175,95
795,057	546,64
795,234	292,69
795,411	309,07
795,588	237,39
795,765	208,72
795,941	425,81
796,118	243,54
796,295	321,36
796,471	501,58
796,648	358,22
796,825	497,49
797,001	337,74
797,178	677,71
797,354	630,6
797,531	251,73
797,708	153,43
797,884	681,8
798,061	276,31
798,237	137,04
798,414	145,24
798,59	520,01
798,767	448,33
798,943	243,54
799,119	298,83
799,296	364,37
799,472	489,29
799,649	116,56
799,825	282,45
800,001	221,01
800,178	167,76
800,354	259,92
800,53	202,58
800,707	257,87
800,883	286,54
801,059	153,43
801,235	603,98
801,411	266,07
801,588	151,38
801,764	315,22
801,94	83,8
802,116	280,4
802,292	237,39
802,468	247,63
802,645	208,72
802,821	517,97
802,997	374,61
803,173	143,19
803,349	175,95
803,525	304,98
803,701	380,75
803,877	178
804,053	155,47
804,229	384,85
804,405	513,87
804,581	94,04
804,756	89,94
804,932	208,72
805,108	431,95
805,284	137,04
805,46	175,95
805,636	339,79
805,812	178
805,987	28,5
806,163	124,76
806,339	3012,39
806,515	135
806,69	79,7
806,866	153,43
807,042	448,33
807,217	356,18
807,393	200,53
807,569	53,08
807,744	612,17
807,92	632,65
808,096	71,51
808,271	159,57
808,447	307,02
808,622	235,35
808,798	135
808,973	106,32
809,149	259,92
809,324	390,99
809,5	98,13
809,675	55,12
809,851	192,34
810,026	274,26
810,201	120,66
810,377	71,51
810,552	218,96
810,728	362,32
810,903	227,15
811,078	91,99
811,253	243,54
811,429	94,04
811,604	-100,52
811,779	143,19
811,955	313,17
812,13	237,39
812,305	126,8
812,48	12,12
812,655	442,19
812,83	499,53
813,006	46,93
813,181	81,75
813,356	116,56
813,531	114,52
813,706	112,47
813,881	36,69
814,056	104,28
814,231	458,57
814,406	-16,55
814,581	-65,71
814,756	218,96
814,931	261,97
815,106	8,02
815,281	79,7
815,456	405,33
815,631	239,44
815,805	-8,36
815,98	-22,7
816,155	216,91
816,33	141,14
816,505	-53,42
816,68	81,75
816,854	10,07
817,029	227,15
817,204	5,97
817,379	14,17
817,553	309,07
817,728	71,51
817,903	-2,22
818,077	100,18
818,252	233,3
818,427	366,42
818,601	73,56
818,776	-59,56
818,95	110,42
819,125	364,37
819,299	28,5
819,474	44,88
819,648	85,84
819,823	477,01
819,997	110,42
820,172	-28,84
820,346	241,49
820,521	241,49
820,695	-77,99
820,87	5,97
821,044	112,47
821,218	190,29
821,393	128,85
821,567	-55,47
821,741	128,85
821,916	157,52
822,09	85,84
822,264	-67,75
822,438	-10,41
822,613	-8,36
822,787	122,71
822,961	-32,94
823,135	315,22
823,309	108,37
823,483	-75,95
823,658	5,97
823,832	282,45
824,006	1,88
824,18	-14,51
824,354	-55,47
824,528	135
824,702	352,08
824,876	-69,8
825,05	36,69
825,224	223,06
825,398	128,85
825,572	-125,1
825,746	-112,81
825,92	407,38
826,093	89,94
826,267	24,4
826,441	-123,05
826,615	450,38
826,789	317,26
826,963	3,93
827,136	-28,84
827,31	137,04
827,484	-28,84
827,658	-57,51
827,831	-92,33
828,005	46,93
828,179	18,26
828,353	-41,13
828,526	-37,03
828,7	208,72
828,873	-67,75
829,047	-10,41
829,221	-61,61
829,394	81,75
829,568	190,29
829,741	-88,23
829,915	-133,29
830,088	339,79
830,262	374,61
830,435	-49,32
830,609	-12,46
830,782	89,94
830,956	186,19
831,129	44,88
831,302	-161,96
831,476	118,61
831,649	-57,51
831,822	1,88
831,996	14,17
832,169	292,69
832,342	-139,43
832,516	-53,42
832,689	-161,96
832,862	153,43
833,035	335,7
833,209	194,39
833,382	-0,17
833,555	-37,03
833,728	-6,31
833,901	-100,52
834,074	5,97
834,247	98,13
834,42	229,2
834,594	-139,43
834,767	32,6
834,94	284,5
835,113	315,22
835,286	-12,46
835,459	-84,14
835,632	89,94
835,805	48,98
835,977	10,07
836,15	32,6
836,323	67,41
836,496	304,98
836,669	-43,18
836,842	-20,65
837,015	311,12
837,188	139,09
837,36	-61,61
837,533	-18,6
837,706	221,01
837,879	364,37
838,051	-108,71
838,224	-88,23
838,397	-0,17
838,569	235,35
838,742	-73,9
838,915	-135,34
839,087	175,95
839,26	178
839,433	-59,56
839,605	128,85
839,778	-118,95
839,95	259,92
840,123	-37,03
840,295	-30,89
840,468	-22,7
840,64	91,99
840,813	-65,71
840,985	-24,75
841,158	171,86
841,33	104,28
841,502	-92,33
841,675	-108,71
841,847	354,13
842,019	180,05
842,192	-133,29
842,364	-71,85
842,536	178
842,709	79,7
842,881	-96,43
843,053	-22,7
843,225	87,89
843,398	325,46
843,57	-20,65
843,742	-80,04
843,914	292,69
844,086	335,7
844,258	-264,36
844,43	-69,8
844,602	329,55
844,775	24,4
844,947	-92,33
845,119	-80,04
845,291	354,13
845,463	264,02
845,635	-127,14
845,807	-80,04
845,979	171,86
846,15	89,94
846,322	-129,19
846,494	-110,76
846,666	-6,31
846,838	253,78
847,01	-157,86
847,182	-90,28
847,354	188,24
847,525	102,23
847,697	-16,55
847,869	-141,48
848,041	153,43
848,212	319,31
848,384	-217,26
848,556	53,08
848,727	210,77
848,899	-51,37
849,071	-84,14
849,242	-20,65
849,414	264,02
849,585	75,6
849,757	-174,25
849,929	5,97
850,1	-84,14
850,272	274,26
850,443	-18,6
850,615	44,88
850,786	231,25
850,958	71,51
851,129	-26,79
851,3	-34,99
851,472	161,62
851,643	67,41
851,815	-106,67
851,986	16,21
852,157	161,62
852,329	393,04
852,5	-198,82
852,671	114,52
852,842	77,65
853,014	5,97
853,185	-137,38
853,356	-90,28
853,527	257,87
853,698	120,66
853,87	-28,84
854,041	96,08
854,212	184,15
854,383	184,15
854,554	-100,52
854,725	-2,22
854,896	212,82
855,067	139,09
855,238	-135,34
855,409	-41,13
855,58	36,69
855,751	360,27
855,922	26,45
856,093	679,75
856,264	-98,47
856,435	116,56
856,606	-125,1
856,777	12,12
856,948	91,99
857,118	12,12
857,289	-69,8
857,46	173,91
857,631	186,19
857,802	114,52
857,972	5,97
858,143	98,13
858,314	-37,03
858,484	-94,38
858,655	-92,33
858,826	-47,27
858,996	112,47
859,167	390,99
859,338	-202,92
859,508	-28,84
859,679	139,09
859,849	51,03
860,02	-159,91
860,19	-49,32
860,361	286,54
860,531	-22,7
860,702	-28,84
860,872	48,98
861,043	-133,29
861,213	167,76
861,384	-151,72
861,554	-86,19
861,724	-63,66
861,895	38,74
862,065	87,89
862,235	-90,28
862,406	186,19
862,576	34,64
862,746	-100,52
862,916	-110,76
863,087	386,9
863,257	73,56
863,427	-151,72
863,597	-110,76
863,767	202,58
863,937	-147,62
864,108	5,97
864,278	-26,79
864,448	259,92
864,618	208,72
864,788	-237,74
864,958	-24,75
865,128	44,88
865,298	116,56
865,468	-161,96
865,638	-256,17
865,808	155,47
865,978	403,28
866,148	-184,49
866,318	-258,21
866,487	241,49
866,657	87,89
866,827	-51,37
866,997	-309,41
867,167	319,31
867,337	137,04
867,506	-174,25
867,676	-172,2
867,846	-4,27
868,016	257,87
868,185	-209,06
868,355	-24,75
868,525	167,76
868,694	-12,46
868,864	-30,89
869,034	-55,47
869,203	-4,27
869,373	57,17
869,542	-80,04
869,712	-67,75
869,881	59,22
870,051	-82,09
870,22	-196,78
870,39	-80,04
870,559	102,23
870,729	-268,45
870,898	-55,47
871,068	-131,24
871,237	20,31
871,406	-61,61
871,576	-41,13
871,745	-82,09
871,914	-24,75
872,084	57,17
872,253	-108,71
872,422	-192,68
872,591	239,44
872,761	-155,82
872,93	132,95
873,099	-125,1
873,268	44,88
873,437	-53,42
873,607	-297,13
873,776	-34,99
873,945	89,94
874,114	-6,31
874,283	-123,05
874,452	28,5
874,621	118,61
874,79	161,62
874,959	-155,82
875,128	-157,86
875,297	-30,89
875,466	225,11
875,635	-41,13
875,804	-73,9
875,973	-114,86
876,142	241,49
876,31	-133,29
876,479	-190,63
876,648	79,7
876,817	-135,34
876,986	-94,38
877,155	42,84
877,323	-43,18
877,492	231,25
877,661	-71,85
877,829	-32,94
877,998	44,88
878,167	259,92
878,335	-174,25
878,504	-174,25
878,673	-24,75
878,841	-108,71
879,01	-149,67
879,178	-192,68
879,347	132,95
879,515	53,08
879,684	-39,08
879,852	-161,96
880,021	-2,22
880,189	85,84
880,358	-164,01
880,526	221,01
880,695	-16,55
880,863	194,39
881,031	-114,86
881,2	-247,97
881,368	-8,36
881,536	292,69
881,705	-114,86
881,873	-90,28
882,041	130,9
882,21	118,61
882,378	-86,19
882,546	-45,23
882,714	85,84
882,882	-63,66
883,05	-26,79
883,219	-186,54
883,387	-14,51
883,555	-41,13
883,723	-225,45
883,891	-108,71
884,059	-141,48
884,227	188,24
884,395	-80,04
884,563	-86,19
884,731	-47,27
884,899	243,54
885,067	-63,66
885,235	-153,77
885,403	192,34
885,571	169,81
885,739	-237,74
