Data from Na 1_Subt6__0__13-41-30-170.txt Node

Date: Tue Feb 02 13:41:30 CET 2021
User: Praktikum
Spectrometer: USB4F03543
Trigger mode: 4
Integration Time (sec): 1,000000E-1
Scans to average: 6
Electric dark correction enabled: true
Nonlinearity correction enabled: false
Boxcar width: 0
XAxis mode: Wavelengths
Number of Pixels in Spectrum: 3648
>>>>>Begin Spectral Data<<<<<
179,969	585,24
180,181	585,24
180,394	585,24
180,606	540,86
180,819	501,27
181,031	-248,29
181,243	-317,92
181,456	188,95
181,668	186,22
181,88	-255,11
182,093	-33,59
182,305	277,7
182,518	265,41
182,73	-386,53
182,942	-189,92
183,155	262,68
183,367	250,39
183,579	-327,82
183,791	9,07
184,004	537,45
184,216	527,55
184,428	224,11
184,641	167,11
184,853	606,4
185,065	596,5
185,277	64,71
185,49	115,91
185,702	571,58
185,914	541,55
186,126	256,88
186,338	131,27
186,551	697,53
186,763	513,56
186,975	315,24
187,187	113,86
187,399	608,1
187,612	632,34
187,824	278,38
188,036	147,65
188,248	479,77
188,46	616,64
188,672	81,09
188,885	277,02
189,097	611,18
189,309	571,24
189,521	173,94
189,733	64,71
189,945	642,92
190,157	499,9
190,369	177,35
190,581	272,92
190,794	522,09
191,006	546,32
191,218	245,61
191,43	123,76
191,642	549,74
191,854	540,52
192,066	13,17
192,278	171,2
192,49	634,39
192,702	438,12
192,914	172,91
193,126	164,04
193,338	656,23
193,55	682,17
193,762	173,94
193,974	484,2
194,186	589,67
194,398	536,08
194,61	243,57
194,822	94,06
195,034	553,15
195,246	328,9
195,457	213,19
195,669	65,73
195,881	657,6
196,093	726,55
196,305	264,39
196,517	536,08
196,729	728,93
196,941	598,21
197,153	63,69
197,365	-45,88
197,576	636,09
197,788	611,18
198	64,03
198,212	-139,06
198,424	551,44
198,636	572,95
198,847	360,64
199,059	92,36
199,271	633,7
199,483	533,35
199,695	196,8
199,906	125,13
200,118	526,87
200,33	534,04
200,542	-237,71
200,753	233,33
200,965	689
201,177	653,5
201,389	148,34
201,6	395,8
201,812	554,86
202,024	547,35
202,235	344,26
202,447	-26,08
202,659	605,72
202,871	573,97
203,082	152,09
203,294	249,71
203,506	607,76
203,717	604,01
203,929	170,52
204,141	378,73
204,352	658,96
204,564	479,77
204,775	167,79
204,987	-16,18
205,199	622,78
205,41	500,59
205,622	98,5
205,833	173,94
206,045	543,59
206,257	490,69
206,468	267,12
206,68	273,6
206,891	496,49
207,103	489,32
207,314	288,62
207,526	67,78
207,737	684,56
207,949	482,5
208,16	188,27
208,372	229,91
208,583	603,67
208,795	580,12
209,006	198,51
209,218	78,36
209,429	585,24
209,641	509,8
209,852	218,65
210,064	137,41
210,275	592,06
210,487	533,69
210,698	83,48
210,909	54,81
211,121	570,22
211,332	561
211,544	-2,53
211,755	-19,6
211,966	486,25
212,178	537,45
212,389	-122,68
212,6	185,88
212,812	438,81
213,023	653,84
213,234	131,95
213,446	89,29
213,657	615,96
213,868	638,48
214,08	-131,21
214,291	142,87
214,502	571,92
214,714	563,05
214,925	203,29
215,136	249,37
215,347	476,35
215,559	546,67
215,77	376,68
215,981	-96,74
216,192	684,56
216,404	584,89
216,615	49,35
216,826	107,72
217,037	526,19
217,249	619,03
217,46	-54,41
217,671	218,99
217,882	652,48
218,093	697,19
218,304	124,44
218,516	154,82
218,727	604,01
218,938	556,56
219,149	-73,19
219,36	53,1
219,571	629,61
219,782	581,14
219,993	-37,35
220,205	317,98
220,416	551,79
220,627	543,59
220,838	124,78
221,049	-226,44
221,26	671,93
221,471	623,12
221,682	168,82
221,893	80,07
222,104	553,83
222,315	615,27
222,526	396,82
222,737	197,49
222,948	678,76
223,159	559,29
223,37	225,13
223,581	307,74
223,792	558,61
224,003	506,39
224,214	367,47
224,425	81,44
224,636	621,42
224,847	518,34
225,058	182,13
225,269	126,15
225,48	650,43
225,691	620,05
225,902	96,11
226,112	317,29
226,323	684,56
226,534	597,86
226,745	234,69
226,956	288,28
227,167	619,71
227,378	577,04
227,589	287,26
227,799	-64,31
228,01	685,24
228,221	632,34
228,432	235,37
228,643	444,95
228,853	606,4
229,064	616,3
229,275	345,62
229,486	416,96
229,697	762,04
229,907	758,97
230,118	409,11
230,329	607,76
230,54	769,21
230,75	617,66
230,961	138,78
231,172	269,17
231,383	597,86
231,593	682,51
231,804	311,49
232,015	217,28
232,225	667,84
232,436	547,01
232,647	64,71
232,857	106,35
233,068	579,43
233,279	603,67
233,489	283,16
233,7	261,32
233,91	656,57
234,121	647,02
234,332	273,6
234,542	299,54
234,753	732,35
234,964	738,15
235,174	353,47
235,385	230,25
235,595	690,71
235,806	698,56
236,016	502,98
236,227	417,3
236,437	825,53
236,648	813,58
236,858	393,75
237,069	518,34
237,279	776,38
237,49	796,86
237,7	443,93
237,911	359,96
238,121	786,28
238,332	789,01
238,542	281,45
238,753	529,94
238,963	896,87
239,174	794,47
239,384	509,46
239,595	538,47
239,805	807,1
240,015	785,6
240,226	466,11
240,436	362,69
240,647	921,44
240,857	796,18
241,067	383,85
241,278	-59,19
241,488	898,23
241,698	772,62
241,909	549,4
242,119	395,8
242,329	791,06
242,54	842,26
242,75	488,64
242,96	651,11
243,171	747,37
243,381	914,28
243,591	633,02
243,801	303,64
244,012	768,87
244,222	805,73
244,432	688,32
244,642	726,2
244,853	935,78
245,063	842,26
245,273	453,82
245,483	484,2
245,694	861,37
245,904	838,84
246,114	454,17
246,324	699,92
246,534	865,12
246,744	917,35
246,955	860,35
247,165	341,19
247,375	732,01
247,585	965,82
247,795	495,81
248,005	470,55
248,215	1023,16
248,425	876,05
248,636	180,42
248,846	720,06
249,056	1068,9
249,266	1040,91
249,476	616,3
249,686	603,33
249,896	1022,48
250,106	932,37
250,316	634,73
250,526	316,95
250,736	1063,78
250,946	836,45
251,156	351,77
251,366	659,99
251,576	956,6
251,786	1002,68
251,996	685,24
252,206	777,4
252,416	980,49
252,626	1013,26
252,836	783,55
253,046	649,41
253,256	1006,09
253,466	972,3
253,676	698,56
253,885	485,23
254,095	947,73
254,305	906,43
254,515	621,07
254,725	636,78
254,935	952,16
255,145	923,49
255,355	521,41
255,564	630,63
255,774	929,64
255,984	692,75
256,194	598,21
256,404	635,07
256,614	956,26
256,823	889,02
257,033	646,67
257,243	514,24
257,453	1099,28
257,662	939,53
257,872	477,03
258,082	640,87
258,292	924,52
258,501	1001,31
258,711	-18,57
258,921	356,2
259,131	909,16
259,34	870,24
259,55	561,68
259,76	749,07
259,969	931
260,179	832,02
260,389	565,78
260,598	394,77
260,808	900,28
261,018	883,21
261,227	414,57
261,437	767,85
261,647	975,37
261,856	928,61
262,066	417,64
262,275	173,94
262,485	903,35
262,694	830,65
262,904	533,35
263,114	428,57
263,323	909,16
263,533	913,93
263,742	620,39
263,952	521,07
264,161	947,04
264,371	904,38
264,58	575,34
264,79	627,56
264,999	652,82
265,209	935,1
265,418	520,04
265,628	498,88
265,837	939,88
266,047	922,47
266,256	321,73
266,466	584,55
266,675	918,37
266,884	904,04
267,094	447,34
267,303	339,14
267,513	797,54
267,722	705,04
267,931	481,47
268,141	544,62
268,35	909,16
268,559	862,39
268,769	629,61
268,978	783,89
269,187	885,6
269,397	873,32
269,606	773,31
269,815	616,64
270,025	837,82
270,234	821,43
270,443	706,07
270,653	595,82
270,862	1031,01
271,071	901,65
271,28	586,26
271,49	411,16
271,699	820,07
271,908	786,62
272,117	552,47
272,327	512,19
272,536	935,1
272,745	850,45
272,954	568,85
273,163	360,98
273,372	592,4
273,582	758,63
273,791	462,7
274	593,43
274,209	641,21
274,418	712,21
274,627	347,33
274,836	547,35
275,046	535,74
275,255	673,3
275,464	567,83
275,673	647,7
275,882	533,35
276,091	643,6
276,3	311,15
276,509	354,84
276,718	519,02
276,927	463,72
277,136	313,2
277,345	346,99
277,554	405,01
277,763	428,57
277,972	284,53
278,181	301,59
278,39	495,47
278,599	459,63
278,808	477,72
279,017	246,3
279,226	496,83
279,435	396,14
279,644	389,65
279,853	312,51
280,062	227,86
280,271	544,28
280,48	324,8
280,688	395,46
280,897	524,48
281,106	492,74
281,315	427,54
281,524	379,07
281,733	382,49
281,942	428,57
282,151	290,67
282,359	202,27
282,568	554,52
282,777	545,3
282,986	329,24
283,195	422,76
283,403	595,82
283,612	692,75
283,821	704,36
284,03	762,38
284,238	724,5
284,447	849,76
284,656	641,9
284,865	507,41
285,073	558,27
285,282	515,6
285,491	363,71
285,699	481,47
285,908	402,97
286,117	501,61
286,325	267,8
286,534	114,2
286,743	523,8
286,951	415,6
287,16	229,91
287,369	365,42
287,577	435,05
287,786	525,84
287,995	363,03
288,203	432,32
288,412	386,24
288,62	426,52
288,829	419,69
289,037	484,89
289,246	477,72
289,455	584,89
289,663	242,88
289,872	163,7
290,08	393,41
290,289	464,75
290,497	447,34
290,706	259,95
290,914	570,22
291,123	577,04
291,331	362,01
291,54	286,57
291,748	458,26
291,957	410,13
292,165	299,2
292,373	560,66
292,582	481,47
292,79	372,59
292,999	281,11
293,207	273,6
293,415	512,87
293,624	522,09
293,832	283,5
294,041	319,68
294,249	499,9
294,457	618,69
294,666	225,82
294,874	456,21
295,082	433,34
295,291	441,88
295,499	429,59
295,707	300,91
295,915	403,31
296,124	448,02
296,332	363,03
296,54	381,12
296,749	351,43
296,957	490
297,165	416,62
297,373	427,54
297,581	486,93
297,79	516,97
297,998	453,14
298,206	438,12
298,414	426,18
298,622	501,95
298,831	186,56
299,039	416,62
299,247	420,03
299,455	484,89
299,663	169,5
299,871	375,66
300,08	488,3
300,288	533,69
300,496	291,69
300,704	396,48
300,912	581,82
301,12	532,33
301,328	291,69
301,536	422,42
301,744	592,06
301,952	516,97
302,16	465,09
302,368	449,05
302,576	386,24
302,784	386,92
302,992	621,76
303,2	444,95
303,408	576,36
303,616	655,55
303,824	559,98
304,032	561,34
304,24	719,38
304,448	821,09
304,656	830,65
304,864	529,6
305,072	630,29
305,28	519,36
305,488	415,6
305,696	366,1
305,904	482,84
306,111	565,44
306,319	385,22
306,527	412,18
306,735	368,83
306,943	441,88
307,151	282,48
307,359	508,44
307,566	484,2
307,774	383,51
307,982	278,38
308,19	484,89
308,398	542,91
308,605	531,65
308,813	536,08
309,021	460,65
309,229	436,08
309,436	586,94
309,644	212,51
309,852	312,51
310,06	423,1
310,267	513,9
310,475	328,22
310,683	403,31
310,89	509,12
311,098	483,18
311,306	394,43
311,513	183,83
311,721	561
311,929	439,15
312,136	389,31
312,344	408,09
312,552	371,91
312,759	594,11
312,967	285,89
313,174	252,44
313,382	467,82
313,589	408,43
313,797	354,16
314,005	254,49
314,212	495,12
314,42	558,61
314,627	374,98
314,835	495,47
315,042	503,66
315,25	555,54
315,457	446,66
315,665	661,01
315,872	414,23
316,08	672,62
316,287	456,9
316,495	272,24
316,702	487,27
316,909	663,4
317,117	316,95
317,324	373,61
317,532	298,18
317,739	606,4
317,946	460,99
318,154	471,57
318,361	561,68
318,569	313,54
318,776	570,22
318,983	625,85
319,191	526,87
319,398	492,05
319,605	403,99
319,813	317,63
320,02	671,93
320,227	486,25
320,434	361,67
320,642	431,98
320,849	632
321,056	515,95
321,264	477,72
321,471	428,91
321,678	526,53
321,885	706,75
322,092	345,62
322,3	543,59
322,507	714,26
322,714	577,38
322,921	565,44
323,128	554,52
323,336	654,18
323,543	657,6
323,75	429,25
323,957	378,39
324,164	511,85
324,371	627,9
324,578	685,93
324,786	423,1
324,993	648,72
325,2	493,08
325,407	732,01
325,614	576,36
325,821	548,03
326,028	576,02
326,235	472,94
326,442	501,61
326,649	654,53
326,856	607,76
327,063	675
327,27	488,64
327,477	699,92
327,684	779,79
327,891	721,43
328,098	812,56
328,305	1441,29
328,512	2257,06
328,719	3363,65
328,926	5274,06
329,133	9758,77
329,34	16896,62
329,546	32269,02
329,753	49455,91
329,96	60178,74
330,167	59970,53
330,374	57207,13
330,581	45444,63
330,788	25741,8
330,995	12660,4
331,201	6796,38
331,408	3741,84
331,615	2442,06
331,822	1416,03
332,029	964,79
332,235	804,71
332,442	765,46
332,649	775,01
332,856	730,98
333,062	640,87
333,269	756,92
333,476	768,87
333,683	627,22
333,889	489,32
334,096	665,11
334,303	698,56
334,509	563,39
334,716	603,33
334,923	679,78
335,129	634,73
335,336	625,17
335,543	505,71
335,749	696,85
335,956	619,03
336,163	787,98
336,369	555,2
336,576	768,87
336,782	664,42
336,989	721,43
337,196	531,99
337,402	739,17
337,609	878,1
337,815	655,55
338,022	484,54
338,228	607,08
338,435	705,04
338,641	463,04
338,848	474,65
339,054	681,49
339,261	838,84
339,467	782,86
339,674	645,31
339,88	686,27
340,087	802,32
340,293	735,42
340,5	650,43
340,706	582,5
340,912	832,36
341,119	746,34
341,325	614,59
341,532	700,6
341,738	848,74
341,944	580,12
342,151	607,08
342,357	769,21
342,563	668,52
342,77	618
342,976	813,93
343,182	759,65
343,389	775,01
343,595	659,99
343,801	788,67
344,007	689
344,214	976,06
344,42	644,29
344,626	770,92
344,832	800,95
345,039	897,21
345,245	620,39
345,451	723,81
345,657	707,77
345,864	811,19
346,07	651,11
346,276	699,92
346,482	737,13
346,688	609,47
346,894	732,01
347,1	719,72
347,307	808,81
347,513	671,59
347,719	662,03
347,925	636,43
348,131	924,52
348,337	780,48
348,543	771,6
348,749	773,99
348,955	808,12
349,161	814,61
349,367	639,85
349,573	558,27
349,779	792,08
349,985	862,74
350,191	732,01
350,397	633,02
350,603	722,11
350,809	877,07
351,015	693,1
351,221	793,79
351,427	640,87
351,633	685,24
351,839	613,57
352,045	707,77
352,251	833,72
352,457	870,93
352,663	642,24
352,869	671,93
353,075	768,87
353,28	922,47
353,486	780,13
353,692	706,75
353,898	899,6
354,104	856,25
354,31	619,37
354,515	915,64
354,721	1006,78
354,927	1054,56
355,133	841,23
355,339	957,62
355,544	1162,08
355,75	885,95
355,956	917,35
356,162	814,27
356,367	1198,6
356,573	810,51
356,779	936,8
356,984	821,78
357,19	853,18
357,396	968,89
357,602	639,51
357,807	886,29
358,013	1170,95
358,218	1284,28
358,424	1256,29
358,63	1285,3
358,835	1317,73
359,041	1324,21
359,247	1077,09
359,452	1093,81
359,658	1179,15
359,863	1051,83
360,069	868,54
360,274	874,68
360,48	1084,26
360,685	1125,22
360,891	743,61
361,097	905,4
361,302	1005,41
361,508	875,02
361,713	820,41
361,918	562,37
362,124	973,33
362,329	837,14
362,535	888,68
362,74	952,16
362,946	1090,74
363,151	1034,42
363,357	955,58
363,562	1061,39
363,767	1079,14
363,973	949,09
364,178	1018,72
364,383	937,83
364,589	974,01
364,794	1084,6
365	822,12
365,205	934,76
365,41	995,85
365,615	996,88
365,821	1023,5
366,026	775,36
366,231	954,89
366,437	870,59
366,642	1098,25
366,847	819,05
367,052	1031,35
367,258	1012,58
367,463	1004,73
367,668	972,3
367,873	871,27
368,078	952,5
368,284	1235,81
368,489	994,83
368,694	1046,03
368,899	1052,51
369,104	736,79
369,309	788,67
369,515	992,1
369,72	994,15
369,925	1062,41
370,13	865,47
370,335	991,07
370,54	1067,87
370,745	811,54
370,95	858,3
371,155	1015,31
371,36	958,31
371,565	857,62
371,77	848,4
371,975	1121,12
372,18	1060,36
372,385	743,61
372,59	887,31
372,795	1000,63
373	996,88
373,205	739,86
373,41	931,34
373,615	1087,67
373,82	1184,27
374,025	888,33
374,23	1122,83
374,435	1184,61
374,64	1071,97
374,845	834,41
375,05	974,01
375,254	1121,8
375,459	1086,65
375,664	1064,12
375,869	913,25
376,074	1114,98
376,279	1091,77
376,483	830,65
376,688	1035,11
376,893	1156,62
377,098	1200,99
377,303	885,95
377,507	875,71
377,712	1162,42
377,917	1000,63
378,122	867,86
378,326	984,93
378,531	1059,68
378,736	1143,99
378,94	1051,15
379,145	968,55
379,35	1027,26
379,554	1044,32
379,759	992,44
379,964	866,15
380,168	1147,4
380,373	1094,84
380,578	730,64
380,782	471,23
380,987	912,57
381,191	1181,54
381,396	824,85
381,601	1009,17
381,805	1021,79
382,01	997,22
382,214	875,36
382,419	983,91
382,623	1085,62
382,828	1087,67
383,032	1131,7
383,237	1162,42
383,441	1157,64
383,646	962,74
383,85	1088,69
384,055	791,4
384,259	1117,71
384,464	1120,44
384,668	982,2
384,872	908,13
385,077	1024,52
385,281	1041,25
385,486	1039,54
385,69	886,29
385,894	963,77
386,099	962,4
386,303	915,64
386,507	838,84
386,712	947,04
386,916	1159,01
387,12	1094,5
387,325	829,97
387,529	966,5
387,733	959,33
387,937	999,61
388,142	1044,66
388,346	1200,99
388,55	1077,77
388,754	1059,34
388,959	1132,73
389,163	1035,79
389,367	1143,99
389,571	1031,69
389,775	865,81
389,98	1052,86
390,184	933,05
390,388	937,49
390,592	872,98
390,796	1022,14
391	1042,96
391,204	949,43
391,409	1077,43
391,613	1130,34
391,817	1238,88
392,021	1005,07
392,225	1148,09
392,429	1195,19
392,633	1125,22
392,837	1029,64
393,041	1014,28
393,245	1009,17
393,449	1268,92
393,653	1256,63
393,857	1283,59
394,061	1439,58
394,265	1789,44
394,469	1644,04
394,673	1388,38
394,877	1460,4
395,081	1352,54
395,285	829,63
395,489	977,08
395,693	1110,2
395,896	1070,95
396,1	791,06
396,304	938,17
396,508	1133,41
396,712	1045
396,916	1040,57
397,12	922,81
397,323	1067,87
397,527	958,99
397,731	747,37
397,935	889,7
398,139	1029,3
398,342	955,58
398,546	955,58
398,75	995,51
398,954	996,88
399,157	843,96
399,361	826,9
399,565	1029,3
399,769	943,63
399,972	1009,85
400,176	994,15
400,38	932,02
400,583	1151,5
400,787	993,12
400,991	835,77
401,194	833,38
401,398	1056,61
401,601	1031,35
401,805	874,68
402,009	983,22
402,212	1056,95
402,416	955,92
402,619	1170,95
402,823	844,64
403,026	1413,64
403,23	1575,77
403,433	1636,53
403,637	2005,5
403,841	2283,34
404,044	2297
404,247	2201,77
404,451	1648,81
404,654	1519,11
404,858	1306,46
405,061	1120,1
405,265	1065,48
405,468	1085,28
405,672	1122,83
405,875	810,17
406,078	1066,17
406,282	1154,23
406,485	1204,06
406,689	882,87
406,892	759,65
407,095	1163,45
407,299	1191,43
407,502	955,92
407,705	1187,68
407,909	1179,15
408,112	1267,89
408,315	1152,18
408,518	1113,95
408,722	1422,17
408,925	1445,04
409,128	1149,45
409,331	1176,07
409,535	1273,35
409,738	1295,54
409,941	782,52
410,144	1040,91
410,347	1203,72
410,551	1084,26
410,754	1083,92
410,957	1028,62
411,16	1259,7
411,363	1142,97
411,566	1002
411,769	1178,81
411,973	1358,34
412,176	1267,55
412,379	908,47
412,582	1074,7
412,785	1128,97
412,988	1346,74
413,191	1040,57
413,394	1023,5
413,597	1370,63
413,8	1274,38
414,003	1126,92
414,206	1643,69
414,409	2253,65
414,612	3231,55
414,815	4769,58
415,018	5989,83
415,221	6521,96
415,424	6456,42
415,627	5680,24
415,83	4345,31
416,033	3159,19
416,235	2631,16
416,438	1726,64
416,641	1333,77
416,844	1719,47
417,047	1949,52
417,25	2036,56
417,453	2112,68
417,655	2350,58
417,858	2857,8
418,061	3161,24
418,264	3582,1
418,467	4306,05
418,669	5085,31
418,872	6341,73
419,075	7738,45
419,278	8132,68
419,48	7842,21
419,683	7049,31
419,886	5451,55
420,089	3839,12
420,291	2489,16
420,494	1992,87
420,697	1535,15
420,899	1413,3
421,102	1468,25
421,305	1137,5
421,507	1073,68
421,71	1298,27
421,912	1323,87
422,115	1230,35
422,318	997,22
422,52	1232,73
422,723	1357,32
422,925	1053,54
423,128	962,06
423,33	1294,52
423,533	1445,38
423,735	1217,38
423,938	1421,49
424,14	1706,16
424,343	1761,11
424,545	1748,48
424,748	2226,34
424,95	2850,97
425,153	3326,1
425,355	3421,33
425,558	3587,22
425,76	3782,11
425,962	3733,3
426,165	3754,13
426,367	4112,18
426,57	3894,07
426,772	3362,28
426,974	2600,1
427,177	2086,74
427,379	1811,97
427,581	1587,37
427,784	1486,68
427,986	1341,28
428,188	1538,56
428,39	1714,35
428,593	1604,44
428,795	2003,11
428,997	2473,12
429,2	2623,31
429,402	2529,1
429,604	2716,49
429,806	2241,7
430,008	1641,65
430,211	1423,54
430,413	1468,59
430,615	1437,53
430,817	1510,23
431,019	1352,88
431,221	1261,41
431,423	1505,11
431,626	1511,26
431,828	1662,47
432,03	2124,28
432,232	2667,68
432,434	3074,88
432,636	3170,45
432,838	3229,85
433,04	2919,58
433,242	2711,37
433,444	2160,81
433,646	1763,5
433,848	2107,56
434,05	1885,35
434,252	1725,27
434,454	1334,45
434,656	1406,47
434,858	1205,77
435,06	1029,99
435,262	871,27
435,464	1165,15
435,666	1094,84
435,868	913,59
436,07	1116
436,271	1435,48
436,473	1434,46
436,675	1083,23
436,877	1184,27
437,079	1426,61
437,281	1504,09
437,482	1395,21
437,684	1490,1
437,886	1486
438,088	1578,84
438,29	1322,16
438,491	1431,73
438,693	1627,65
438,895	1564,16
439,097	1206,11
439,298	1269,26
439,5	1349,13
439,702	1461,42
439,903	1178,81
440,105	1273,35
440,307	1340,25
440,508	1321,48
440,71	1279,16
440,912	1121,46
441,113	1539,59
441,315	1458,35
441,517	1339,57
441,718	1223,18
441,92	1433,44
442,121	1334,79
442,323	1343,33
442,524	1509,89
442,726	1331,04
442,928	1508,53
443,129	1357,32
443,331	1274,38
443,532	1387,36
443,734	1380,53
443,935	1186,66
444,136	1347,76
444,338	1488,05
444,539	1421,49
444,741	1292,47
444,942	1228,98
445,144	1447,43
445,345	1356,98
445,546	1502,04
445,748	1319,77
445,949	1442,65
446,151	1597,27
446,352	1479,17
446,553	994,15
446,755	1525,25
446,956	1544,37
447,157	1370,29
447,359	1268,92
447,56	1507,5
447,761	1754,28
447,962	1321,48
448,164	1505,8
448,365	1799,34
448,566	1990,82
448,767	1878,19
448,969	1662,13
449,17	1920,17
449,371	1920,51
449,572	1785,69
449,773	1986,73
449,974	2298,7
450,176	2279,59
450,377	2192,89
450,578	1990,14
450,779	2004,82
450,98	2068,65
451,181	1772,37
451,382	1643,35
451,583	1708,89
451,784	1807,19
451,986	1810,94
452,187	1339,23
452,388	1622,53
452,589	1452,89
452,79	1361,76
452,991	1509,89
453,192	1631,75
453,393	1887,06
453,594	2226,34
453,795	3344,19
453,995	5339,59
454,196	7718,99
454,397	9100,01
454,598	9187,05
454,799	9217,77
455	7439,1
455,201	4873
455,402	2964,29
455,603	2604,87
455,804	2229,07
456,004	1886,72
456,205	1653,93
456,406	1638,23
456,607	1673,05
456,808	1224,88
457,008	1558,7
457,209	1634,82
457,41	1703,43
457,611	1494,19
457,811	1213,62
458,012	1804,8
458,213	1975,81
458,414	1784,66
458,614	1903,79
458,815	2000,38
459,016	2024,27
459,216	1822,55
459,417	1790,81
459,618	1770,33
459,818	1856,34
460,019	1721,52
460,22	1622,87
460,42	1618,44
460,621	1590,79
460,821	1535,49
461,022	1336,5
461,223	1673,05
461,423	1867,95
461,624	1581,57
461,824	1803,44
462,025	1959,76
462,225	1953,62
462,426	1534,81
462,626	1815,04
462,827	1652,57
463,027	1580,89
463,228	1520,82
463,428	1436,17
463,628	1818,45
463,829	1639,26
464,029	1792,17
464,23	1842,01
464,43	1725,61
464,63	1903,1
464,831	2137,94
465,031	2290,51
465,231	3041,09
465,432	3630,22
465,632	3710,44
465,832	4438,83
466,033	4500,95
466,233	3971,55
466,433	2999,11
466,634	2560,84
466,834	2273,44
467,034	2242,72
467,234	1697,62
467,435	1750,53
467,635	1887,06
467,835	1798,32
468,035	1653,93
468,235	1781,93
468,436	1643,01
468,636	1910,27
468,836	2130,09
469,036	1869,65
469,236	2143,4
469,436	2240,68
469,636	1805,82
469,836	2097,66
470,037	1956,35
470,237	2041,68
470,437	1617,75
470,637	1703,77
470,837	1786,71
471,037	1831,42
471,237	1797,97
471,437	1747,46
471,637	1924,95
471,837	1909,25
472,037	1897,3
472,237	1681,92
472,437	1928,36
472,637	1856
472,837	1653,59
473,036	1858,05
473,236	2158,08
473,436	2200,74
473,636	2397,69
473,836	2718,54
474,036	2895,69
474,236	2991,26
474,436	2884,42
474,635	2373,11
474,835	2441,72
475,035	2308,6
475,235	2133,84
475,435	2099,71
475,634	2166,61
475,834	2223,61
476,034	1919,49
476,234	2256,72
476,433	2153,98
476,633	1914,37
476,833	1966,25
477,033	2022,57
477,232	2032,81
477,432	2083,32
477,632	1751,55
477,831	1966,59
478,031	2151,93
478,231	2163,2
478,43	2051,24
478,63	2119,51
478,829	2505,89
479,029	2165,58
479,229	2186,75
479,428	2309,28
479,628	2156,37
479,827	2070,7
480,027	2206,54
480,226	1659,05
480,426	2120,53
480,625	2202,11
480,825	1994,58
481,024	2062,84
481,224	1963,86
481,423	2292,9
481,623	1844,39
481,822	2270,71
482,021	2311,67
482,221	2361,51
482,42	2131,45
482,62	2350,93
482,819	2413,73
483,018	2395,64
483,218	2377,89
483,417	2171,05
483,616	2306,21
483,816	2218,49
484,015	2033,15
484,214	2193,23
484,414	2256,04
484,613	2373,45
484,812	2197,67
485,011	2433,19
485,211	2143,4
485,41	2242,04
485,609	2337,96
485,808	2034,17
486,008	2377,55
486,207	2479,95
486,406	2435,23
486,605	2523,64
486,804	2726,05
487,003	2872,13
487,203	2809,67
487,402	3096,05
487,601	3105,94
487,8	3182,74
487,999	2992,62
488,198	2791,92
488,397	2811,38
488,596	2943,81
488,795	2679,97
488,994	2491,89
489,193	2649,93
489,392	2452,98
489,591	2375,16
489,79	2340,34
489,989	2391,54
490,188	2514,08
490,387	2193,91
490,586	2292,56
490,785	2583,37
490,984	2486,09
491,183	2611,02
491,382	2957,81
491,581	4440,54
491,779	6814,13
491,978	10281,68
492,177	12395,53
492,376	13474,47
492,575	13360,12
492,774	11409,43
492,972	8479,13
493,171	5664,2
493,37	4587,65
493,569	3548,65
493,768	2993,99
493,966	3016,86
494,165	2995,69
494,364	2609,31
494,563	2605,56
494,761	2947,91
494,96	2840,73
495,159	2661,19
495,357	2812,74
495,556	2935,96
495,755	3333,61
495,953	4671,96
496,152	7722,41
496,35	13453,31
496,549	20738,61
496,748	28949,26
496,946	36499,1
497,145	38820,47
497,343	37054,44
497,542	31864,54
497,74	24096,26
497,939	16174,03
498,137	11457,9
498,336	8133,37
498,534	5986,41
498,733	5045,37
498,931	4239,84
499,13	3767,78
499,328	3293,33
499,527	3064,98
499,725	3030,17
499,924	2812,74
500,122	2899,44
500,32	2716,15
500,519	2741,41
500,717	2521,59
500,915	2573,81
501,114	2535,58
501,312	2645,49
501,51	2658,12
501,709	2501,45
501,907	2653,68
502,105	2936,64
502,304	2616,48
502,502	2637,64
502,7	2798,75
502,898	2894,32
503,097	2635,93
503,295	2689,18
503,493	2992,62
503,691	2842,44
503,889	3058,5
504,088	3131,54
504,286	3087,85
504,484	3231,21
504,682	3110,04
504,88	3135,3
505,078	3156,12
505,276	3265
505,474	2821,28
505,672	3031,88
505,871	2999,11
506,069	3130,18
506,267	2839,71
506,465	2660,51
506,663	2990,57
506,861	2863,6
507,059	2633,2
507,257	2662,9
507,455	2981,7
507,653	2950,98
507,851	2792,26
508,049	2872,48
508,246	2756,08
508,444	2791,58
508,642	2702,15
508,84	2546,51
509,038	2795,34
509,236	2860,87
509,434	2840,73
509,632	2639,01
509,829	2924,36
510,027	3001,84
510,225	2706,25
510,423	2986,14
510,621	3040,41
510,818	3065,33
511,016	2917,19
511,214	2805,23
511,412	2899,1
511,609	2966,34
511,807	2673,48
512,005	2793,63
512,203	2836,29
512,4	2887,84
512,598	2984,77
512,796	3180,69
512,993	3721,36
513,191	4804,73
513,389	6211,01
513,586	8464,11
513,784	10876,96
513,981	12768,94
514,179	12873,73
514,377	12208,48
514,574	10932,94
514,772	9273,06
514,969	6851,34
515,167	6012,35
515,364	5109,88
515,562	4718,72
515,759	3599,85
515,957	3656,16
516,154	3631,59
516,352	3341,46
516,549	3162,95
516,746	3279
516,944	3398,12
517,141	3775,29
517,339	3924,79
517,536	3884,17
517,733	4129,59
517,931	4171,57
518,128	3874,96
518,325	3592,34
518,523	3482,43
518,72	3290,94
518,917	3081,71
519,115	3021,29
519,312	3187,18
519,509	3229,16
519,707	3352,72
519,904	3363,99
520,101	3431,91
520,298	3542,84
520,495	3613,5
520,693	4177,03
520,89	4401,63
521,087	4253,15
521,284	3879,05
521,481	3977,01
521,678	3696,44
521,876	3561,28
522,073	3216,53
522,27	3366,38
522,467	3452,05
522,664	3654,8
522,861	3290,26
523,058	3256,81
523,255	3590,63
523,452	3639,78
523,649	3625,1
523,846	3803,62
524,043	3965,07
524,24	4042,89
524,437	3709,07
524,634	3732,62
524,831	3753,78
525,028	3560,93
525,225	3506,66
525,422	3177,28
525,619	3412,8
525,816	3341,46
526,013	2927,43
526,209	3156,12
526,406	3398,8
526,603	3491,99
526,8	3650,36
526,997	3437,37
527,194	3710,44
527,39	3654,8
527,587	3555,81
527,784	3430,55
527,981	3476,28
528,177	3543,53
528,374	3289,58
528,571	3075,91
528,768	3485,16
528,964	3543,19
529,161	3371,84
529,358	3200,15
529,554	3579,02
529,751	3551,04
529,948	3661,28
530,144	3440,79
530,341	3765,73
530,537	3742,52
530,734	3499,15
530,931	3407,68
531,127	3571,17
531,324	3646,95
531,52	3451,03
531,717	3503,25
531,913	3502,23
532,11	3659,58
532,306	3320,98
532,503	3596,77
532,699	3521,34
532,896	3534,31
533,092	3295,38
533,289	3618,28
533,485	3604,62
533,682	3570,15
533,878	3324,74
534,074	3457,17
534,271	3584,14
534,467	3632,27
534,664	3452,73
534,86	3527,48
535,056	3668,11
535,253	3781,43
535,449	3537,04
535,645	3733,3
535,841	3845,94
536,038	3839,46
536,234	3844,58
536,43	3607,7
536,626	3896,46
536,823	3863,35
537,019	3763,34
537,215	3707,71
537,411	4018,31
537,607	3875,3
537,804	3866,08
538	3821,71
538,196	3865,06
538,392	3868,13
538,588	3518,61
538,784	3585,85
538,98	3802,25
539,176	3766,07
539,373	3566,4
539,569	3609,74
539,765	3823,42
539,961	3736,38
540,157	3598,14
540,353	3698,83
540,549	3939,47
540,745	3892,36
540,941	3720,68
541,137	3695,76
541,333	3706,34
541,528	3588,58
541,724	3333,27
541,92	3310,06
542,116	3610,09
542,312	3316,88
542,508	3477,99
542,704	3497,79
542,9	3709,75
543,096	3840,48
543,291	3591,99
543,487	3778,02
543,683	4123,1
543,879	4250,42
544,075	3936,05
544,27	3947,66
544,466	3900,21
544,662	3636,71
544,858	3469,8
545,053	3245,55
545,249	3498,81
545,445	3768,46
545,64	3707,71
545,836	3724,77
546,032	3985,89
546,227	4082,82
546,423	3670,84
546,619	3839,8
546,814	4131,98
547,01	4188,98
547,205	4091,36
547,401	4181,81
547,597	4564,44
547,792	5010,21
547,988	5019,09
548,183	5820,87
548,379	6039,32
548,574	6131,48
548,77	5947,84
548,965	5690,14
549,161	5617,09
549,356	5388,4
549,552	4991,78
549,747	4760,02
549,942	4921,13
550,138	4820,78
550,333	4609,49
550,529	4660,69
550,724	5013,97
550,919	4955,26
551,115	4785,28
551,31	4651,14
551,505	5191,12
551,701	5198,29
551,896	5031,72
552,091	5142,99
552,287	5528,35
552,482	5501,38
552,677	5401,03
552,872	5468,28
553,067	5465,55
553,263	5359,73
553,458	5449,84
553,653	5211,26
553,848	5702,09
554,043	5912,34
554,239	6265,28
554,434	6637,67
554,629	7371,52
554,824	7205,64
555,019	6977,63
555,214	6672,48
555,409	6379,62
555,604	6422,97
555,799	6242,75
555,994	6304,87
556,189	6390,54
556,384	6476,56
556,579	6042,73
556,774	5734,17
556,969	6101,44
557,164	6044,78
557,359	5787,76
557,554	5871,73
557,749	6291,9
557,944	6317,84
558,139	6200,08
558,334	6515,81
558,529	6840,41
558,724	7144,2
558,918	7170,14
559,113	7697,49
559,308	8043,26
559,503	8131,66
559,698	8109,81
559,893	7828,22
560,087	7723,77
560,282	7770,53
560,477	7134,98
560,672	7498,15
560,866	7685,88
561,061	7647,31
561,256	7413,5
561,45	7469,14
561,645	7593,04
561,84	7799,89
562,034	7555,5
562,229	7753,81
562,424	8260,68
562,618	8223,13
562,813	8400,97
563,008	8925,93
563,202	9294,91
563,397	9936,6
563,591	10220,93
563,786	11018,27
563,98	11902,31
564,175	12107,11
564,369	12048,06
564,564	12379,49
564,758	13313,36
564,953	13601,1
565,147	13850,95
565,342	14262,59
565,536	14926,48
565,731	15862,4
565,925	19032,66
566,119	29058,49
566,314	52502,95
566,508	63456,85
566,703	63284,14
566,897	64585,62
567,091	64485,27
567,286	64401,31
567,48	64020,38
567,674	64055,2
567,868	64622,49
568,063	64563,1
568,257	64253,85
568,451	64399,26
568,646	64548,76
568,84	64462,75
569,034	64532,38
569,228	64309,15
569,422	64491,42
569,616	64550,81
569,811	64530,33
570,005	64087,97
570,199	64505,75
570,393	64477,08
570,587	64130,98
570,781	64446,36
570,975	64663,45
571,169	64538,52
571,364	63975,33
571,558	64090,02
571,752	64397,21
571,946	64556,95
572,14	64184,22
572,334	64173,98
572,528	64528,28
572,722	64491,42
572,916	64300,96
573,109	64102,3
573,303	64620,44
573,497	64620,44
573,691	64047,01
573,885	64282,52
574,079	64585,62
574,273	64593,82
574,467	64270,24
574,661	64397,21
574,854	64511,9
575,048	64497,56
575,242	35019,44
575,436	20885,38
575,63	16107,81
575,823	16076,07
576,017	16404,77
576,211	16709,23
576,405	17079,23
576,598	17183
576,792	17200,06
576,986	17124,97
577,18	17707,62
577,373	17955,77
577,567	18172,51
577,761	18488,24
577,954	18908,41
578,148	19264,76
578,341	19580,83
578,535	19679,47
578,729	20387,39
578,922	20632,46
579,116	21028,06
579,309	21274,84
579,503	21888,21
579,696	22454,47
579,89	22656,19
580,083	23354,21
580,277	25205,92
580,47	29453,74
580,664	38168,53
580,857	49042,91
581,051	58433,87
581,244	62949,98
581,437	63260,25
581,631	63983,52
581,824	64282,52
582,018	64251,81
582,211	64354,2
582,404	64253,85
582,598	64429,98
582,791	64243,61
582,984	64167,84
583,178	63842,21
583,371	64331,68
583,564	64362,4
583,757	64061,34
583,951	63932,32
584,144	64405,4
584,337	64241,57
584,53	64053,15
584,723	64341,92
584,917	64372,64
585,11	64397,21
585,303	63946,66
585,496	63852,45
585,689	64221,09
585,882	64325,53
586,075	64073,63
586,268	64233,37
586,462	64280,48
586,655	64231,33
586,848	63960,99
587,041	64200,61
587,234	64333,72
587,427	64176,03
587,62	64249,76
587,813	64233,37
588,006	64155,55
588,199	64321,44
588,392	64049,06
588,585	64178,08
588,777	64444,31
588,97	64432,03
589,163	63788,96
589,356	63913,89
589,549	64343,96
589,742	64470,94
589,935	64380,83
590,128	64307,1
590,32	64368,54
590,513	64382,88
590,706	64192,41
590,899	64448,41
591,092	64366,49
591,284	64466,84
591,477	64161,69
591,67	64122,78
591,863	64348,06
592,055	64530,33
592,248	63901,6
592,441	64094,11
592,633	64423,83
592,826	64409,5
593,019	64241,57
593,211	64020,38
593,404	64489,37
593,596	64450,46
593,789	64251,81
593,982	64159,65
594,174	64546,71
594,367	64501,66
594,559	64184,22
594,752	64520,09
594,944	64503,71
595,137	64448,41
595,329	64235,42
595,522	64163,74
595,714	64515,99
595,907	64382,88
596,099	64284,57
596,292	64348,06
596,484	64528,28
596,676	64499,61
596,869	64047,01
597,061	63891,36
597,253	64509,85
597,446	64489,37
597,638	64288,67
597,83	64249,76
598,023	64511,9
598,215	64659,35
598,407	64276,38
598,6	64495,51
598,792	64401,31
598,984	64429,98
599,176	64276,38
599,369	64065,44
599,561	64429,98
599,753	64599,96
599,945	64008,1
600,137	64397,21
600,329	64397,21
600,522	64569,24
600,714	64432,03
600,906	64479,13
601,098	64399,26
601,29	64616,34
601,482	64284,57
601,674	64251,81
601,866	64454,55
602,058	64520,09
602,25	64143,26
602,442	64012,19
602,634	64563,1
602,826	64509,85
603,018	64274,33
603,21	64112,54
603,402	64470,94
603,594	64561,05
603,786	64219,04
603,978	63989,67
604,17	64628,63
604,362	64485,27
604,554	64079,78
604,745	64118,69
604,937	64429,98
605,129	64460,7
605,321	64346,01
605,513	64333,72
605,704	64542,62
605,896	64401,31
606,088	64212,89
606,28	64292,76
606,471	64239,52
606,663	64487,32
606,855	64515,99
607,047	64180,13
607,238	64483,23
607,43	64376,73
607,622	63907,75
607,813	64176,03
608,005	64438,17
608,197	64186,27
608,388	64102,3
608,58	64180,13
608,771	64102,3
608,963	64161,69
609,154	63885,22
609,346	63688,61
609,537	63692,71
609,729	63643,56
609,921	62924,72
610,112	63033,26
610,303	63315,88
610,495	63461,29
610,686	63135,66
610,878	63651,75
611,069	63905,7
611,261	63788,96
611,452	63844,26
611,643	63803,3
611,835	63944,61
612,026	63987,62
612,217	63733,67
612,409	63946,66
612,6	64133,02
612,791	64139,17
612,983	63811,49
613,174	63614,89
613,365	64194,46
613,557	64159,65
613,748	63967,14
613,939	63866,79
614,13	64255,9
614,321	64335,77
614,513	63702,95
614,704	63850,4
614,895	64323,48
615,086	64415,64
615,277	64141,22
615,468	64210,85
615,659	64257,95
615,851	64503,71
616,042	64069,54
616,233	64081,82
616,424	64343,96
616,615	64268,19
616,806	64257,95
616,997	64438,17
617,188	64505,75
617,379	64364,44
617,57	64004
617,761	64057,25
617,952	64241,57
618,143	64276,38
618,334	64192,41
618,524	64139,17
618,715	64366,49
618,906	64548,76
619,097	64182,17
619,288	64493,47
619,479	64208,8
619,67	64395,16
619,86	64382,88
620,051	64135,07
620,242	64270,24
620,433	64399,26
620,624	64057,25
620,814	64118,69
621,005	64315,29
621,196	64307,1
621,386	64044,96
621,577	64135,07
621,768	64407,45
621,958	64413,59
622,149	64290,72
622,34	64192,41
622,53	64468,89
622,721	64397,21
622,912	63963,04
623,102	64143,26
623,293	64350,11
623,483	64407,45
623,674	64057,25
623,864	64237,47
624,055	64444,31
624,245	64389,02
624,436	64427,93
624,626	64339,87
624,817	64462,75
625,007	64544,66
625,198	64397,21
625,388	64253,85
625,579	64405,4
625,769	64466,84
625,959	64090,02
626,15	64112,54
626,34	64372,64
626,531	64243,61
626,721	64055,2
626,911	64401,31
627,101	64563,1
627,292	64505,75
627,482	64251,81
627,672	64257,95
627,863	64534,43
628,053	64204,7
628,243	64094,11
628,433	64499,61
628,623	64503,71
628,814	64569,24
629,004	64173,98
629,194	64303
629,384	64270,24
629,574	64466,84
629,764	63885,22
629,955	64018,34
630,145	64178,08
630,335	64360,35
630,525	64397,21
630,715	64071,58
630,905	64319,39
631,095	64479,13
631,285	64237,47
631,475	64401,31
631,665	64251,81
631,855	64554,9
632,045	64444,31
632,235	64391,07
632,425	64528,28
632,615	64636,82
632,805	64208,8
632,994	64325,53
633,184	64294,81
633,374	64524,19
633,564	64290,72
633,754	64266,14
633,944	64515,99
634,133	64526,23
634,323	64249,76
634,513	64243,61
634,703	64495,51
634,893	64565,14
635,082	64173,98
635,272	64364,44
635,462	64538,52
635,651	64460,7
635,841	64206,75
636,031	64374,68
636,221	64552,86
636,41	64599,96
636,6	64472,99
636,789	64221,09
636,979	64546,71
637,169	64487,32
637,358	64544,66
637,548	64241,57
637,737	64495,51
637,927	64569,24
638,116	64413,59
638,306	64370,59
638,495	64495,51
638,685	64616,34
638,874	64427,93
639,064	64243,61
639,253	64487,32
639,443	64493,47
639,632	64409,5
639,822	64470,94
640,011	64376,73
640,2	64458,65
640,39	64145,31
640,579	64204,7
640,768	64587,67
640,958	64563,1
641,147	64534,43
641,336	64399,26
641,526	64413,59
641,715	64479,13
641,904	64116,64
642,093	64487,32
642,283	64403,36
642,472	64401,31
642,661	64481,18
642,85	64135,07
643,039	64624,54
643,228	64411,55
643,418	64260
643,607	64251,81
643,796	64296,86
643,985	64528,28
644,174	64253,85
644,363	64169,89
644,552	64452,51
644,741	64559
644,93	64493,47
645,119	64186,27
645,308	64538,52
645,497	64417,69
645,686	64071,58
645,875	64432,03
646,064	64509,85
646,253	64507,8
646,442	64069,54
646,631	64450,46
646,82	64417,69
647,009	64475,03
647,198	64282,52
647,387	64470,94
647,575	64571,29
647,764	64233,37
647,953	64223,13
648,142	64225,18
648,331	64599,96
648,519	64520,09
648,708	64151,45
648,897	64331,68
649,086	64442,27
649,274	64532,38
649,463	64432,03
649,652	63893,41
649,84	64397,21
650,029	64380,83
650,218	64255,9
650,406	35279,19
650,595	64550,81
650,784	5491,83
650,972	64243,61
651,161	5204,77
651,349	64548,76
651,538	5275,43
651,726	11073,91
651,915	5110,56
652,104	5390,11
652,292	5488,76
652,481	5172,34
652,669	4825,21
652,857	5466,23
653,046	5275,08
653,234	5021,14
653,423	4711,21
653,611	5139,24
653,8	5112,27
653,988	4794,49
654,176	4942,63
654,365	5160,4
654,553	5041,27
654,741	4927,95
654,93	5054,59
655,118	5150,84
655,306	5196,24
655,494	4967,89
655,683	4828,29
655,871	5049,12
656,059	4910,2
656,247	4848,77
656,436	4662,4
656,624	4684,93
656,812	4789,03
657	4655,57
657,188	4325,85
657,376	4892,46
657,564	4628,27
657,753	4633,05
657,941	4773,67
658,129	4746,03
658,317	4855,25
658,505	4811,9
658,693	4863,44
658,881	5192,14
659,069	4905,77
659,257	4813,61
659,445	4625,54
659,633	4633,05
659,821	4754,56
660,009	4446,68
660,197	4528,94
660,384	4587,65
660,572	4588,67
660,76	4243,25
660,948	4276,7
661,136	4540,2
661,324	4523,82
661,512	4197,17
661,699	4339,16
661,887	4405,38
662,075	4298,54
662,263	4266,46
662,451	4314,59
662,638	4465,79
662,826	4436,78
663,014	3943,56
663,201	4112,86
663,389	4430,3
663,577	4268,17
663,764	4085,56
663,952	4228,91
664,14	4330,63
664,327	4463,41
664,515	4276,02
664,702	4258,61
664,89	4673,66
665,078	4610,52
665,265	4401,28
665,453	4416,3
665,64	5034,11
665,828	5393,52
666,015	5825,65
666,203	6103,15
666,39	6327,4
666,578	6116,46
666,765	5626,65
666,952	4636,46
667,14	4796,2
667,327	4653,53
667,515	4306,05
667,702	4136,75
667,889	4337,11
668,077	4308,78
668,264	3762,32
668,451	3914,89
668,638	4164,4
668,826	4202,63
669,013	3812,15
669,2	3695,42
669,388	4068,15
669,575	3845,6
669,762	4017,97
669,949	3624,42
670,136	-147,25
670,323	3963,02
670,511	3719,65
670,698	3724,43
670,885	3893,39
671,072	3832,29
671,259	3480,72
671,446	3642,85
671,633	3727,84
671,82	3752,76
672,007	3636,71
672,194	3369,79
672,381	3690,3
672,568	3807,71
672,755	3544,89
672,942	3746,62
673,129	4726,23
673,316	5634,84
673,503	6371,77
673,69	7194,71
673,877	7721,72
674,064	7495,42
674,251	6669,75
674,437	5719,83
674,624	5128,65
674,811	4843,65
674,998	4508,8
675,185	4087,6
675,372	4012,51
675,558	4021,04
675,745	3616,57
675,932	3382,76
676,119	3696,78
676,305	3390,95
676,492	3167,72
676,679	3258,18
676,865	3417,58
677,052	3337,71
677,239	3312,11
677,425	3152,02
677,612	3486,18
677,798	3276,95
677,985	3042,12
678,172	2963,95
678,358	3270,46
678,545	3260,91
678,731	3068,74
678,918	3148,61
679,104	3259,88
679,291	3338,39
679,477	3265
679,664	3078,98
679,85	3390,61
680,036	3270,46
680,223	3135,98
680,409	3070,45
680,596	3295,38
680,782	3155,44
680,968	2949,62
681,155	3125,4
681,341	3253,06
681,527	3207,66
681,714	3080,69
681,9	3096,73
682,086	3252,71
682,272	3131,2
682,459	3031,53
682,645	2645,49
682,831	3147,24
683,017	3059,52
683,204	2663,92
683,39	2921,63
683,576	3111,75
683,762	3193,32
683,948	2914,12
684,134	3109,36
684,32	3056,45
684,506	3070,45
684,693	2895,69
684,879	3652,75
685,065	4312,88
685,251	5161,76
685,437	5833,84
685,623	6009,62
685,809	6423,31
685,995	6001,09
686,181	5129,34
686,366	4543,96
686,552	4282,5
686,738	4155,53
686,924	3611,45
687,11	3735,69
687,296	3728,18
687,482	3699,51
687,668	3503,59
687,853	3349,99
688,039	3255,79
688,225	3263,98
688,411	2988,19
688,597	2712,05
688,782	3063,28
688,968	3263,3
689,154	2848,58
689,34	2574,5
689,525	3203,56
689,711	3322,35
689,897	2580,98
690,082	3025,39
690,268	3238,04
690,454	3302,89
690,639	2927,43
690,825	2708,98
691,01	2916,51
691,196	3162,26
691,381	2825,71
691,567	3070,45
691,753	3627,83
691,938	4070,54
692,124	4250,08
692,309	4305,03
692,494	4379,44
692,68	4240,86
692,865	3837,07
693,051	3445,57
693,236	3742,86
693,422	3771,87
693,607	3838,78
693,792	4359,3
693,978	8622,83
694,163	25174,85
694,348	60640,55
694,534	62276,54
694,719	63452,07
694,904	64264,78
695,089	64233,37
695,275	64356,25
695,46	64704,41
695,645	64452,51
695,83	64429,98
696,016	64464,79
696,201	64581,53
696,386	64548,76
696,571	64225,18
696,756	64456,6
696,941	64522,14
697,126	64716,69
697,311	64429,98
697,497	64194,46
697,682	64487,32
697,867	64466,84
698,052	64268,19
698,237	63981,47
698,422	64491,42
698,607	64563,1
698,792	64272,29
698,977	64243,61
699,162	36845,89
699,347	14285,46
699,531	2826,4
699,716	2784,07
699,901	3006,62
700,086	3079,32
700,271	2833,22
700,456	2602,14
700,641	3320,64
700,825	3718,97
701,01	3915,57
701,195	4825,21
701,38	5616,41
701,565	6120,55
701,749	5530,74
701,934	5253,24
702,119	4714,28
702,303	4117,98
702,488	3400,17
702,673	3044,5
702,857	3270,12
703,042	3214,83
703,227	2848,58
703,411	2902,85
703,596	2979,65
703,78	3126,42
703,965	3527,83
704,15	6045,12
704,334	16443
704,519	40667,4
704,703	62661,9
704,888	62471,44
705,072	64379,12
705,257	64166,81
705,441	64511,9
705,625	63741,86
705,81	64450,46
705,994	64614,3
706,179	64176,03
706,363	64257,95
706,547	64559
706,732	64372,64
706,916	64237,47
707,1	64370,59
707,285	64454,55
707,469	64536,47
707,653	31272,34
707,837	7507,71
708,022	5561,8
708,206	4694,14
708,39	3978,04
708,574	3490,96
708,759	3596,43
708,943	3615,55
709,127	3093,31
709,311	3061,23
709,495	3353,07
709,679	3173,53
709,863	2812,4
710,047	2712,73
710,231	2902,51
710,415	2997,4
710,6	2561,87
710,784	2941,08
710,968	2890,57
711,152	3089,56
711,336	2843,12
711,519	2679,97
711,703	2797,72
711,887	2762,57
712,071	2803,53
712,255	3554,45
712,439	5643,38
712,623	9238,93
712,807	13100,03
712,991	16384,29
713,174	18529,88
713,358	18346,59
713,542	16102,01
713,726	12939,61
713,91	9922,61
714,093	8190,37
714,277	6643,13
714,461	5487,73
714,645	5137,53
714,828	4619,73
715,012	3907,38
715,196	3582,44
715,379	3429,52
715,563	3261,59
715,747	2861,89
715,93	2762,57
716,114	2918,9
716,297	3038,36
716,481	2687,13
716,664	2549,58
716,848	2863,6
717,031	2831,17
717,215	2679,62
717,398	2508,96
717,582	2708,3
717,765	2590,2
717,949	2556,06
718,132	2521,93
718,316	2895,34
718,499	3026,76
718,682	2696,01
718,866	3167,38
719,049	3482,09
719,233	3489,94
719,416	3187,52
719,599	2914,12
719,782	3244,18
719,966	3069,42
720,149	2762,23
720,332	2528,42
720,515	2833,91
720,699	2834,25
720,882	2558,79
721,065	2659,15
721,248	2880,67
721,431	2859,5
721,615	2654,37
721,798	2394,96
721,981	2624,67
722,164	2756,77
722,347	2379,94
722,53	2167,29
722,713	2713,42
722,896	2674,85
723,079	2400,42
723,262	2297
723,445	2574,84
723,628	2773,83
723,811	2514,42
723,994	2483,7
724,177	2739,36
724,36	2818,89
724,543	2888,86
724,726	4075,32
724,909	8486,98
725,091	17630,82
725,274	30593,1
725,457	44133,24
725,64	52950,09
725,823	56348,69
726,006	53328,28
726,188	44870,17
726,371	33446,94
726,554	23713,97
726,737	18557,53
726,919	14481,73
727,102	11693,42
727,285	9428,02
727,467	7463
727,65	6038,29
727,833	5476,13
728,015	4591,75
728,198	3760,95
728,38	3315,18
728,563	3257,83
728,746	3104,24
728,928	2814,79
729,111	2938,01
729,293	3242,13
729,476	3310,06
729,658	3264,32
729,841	3413,14
730,023	3403,24
730,205	3467,41
730,388	2965,66
730,57	2840,39
730,753	2989,55
730,935	3007,98
731,117	2506,23
731,3	2737,31
731,482	2976,24
731,664	2939,72
731,847	2759,15
732,029	2692,25
732,211	2998,43
732,394	3141,1
732,576	2751,65
732,758	2601,12
732,94	3055,43
733,122	3390,95
733,305	3193,32
733,487	3859,25
733,669	4228,57
733,851	4415,96
734,033	3967,46
734,215	3701,22
734,397	3738,77
734,58	3510,42
734,762	3398,8
734,944	3744,57
735,126	4868,9
735,308	5832,13
735,49	6853,73
735,672	8326,9
735,854	15626,54
736,036	40100,79
736,218	62014,06
736,399	62119,87
736,581	64127,9
736,763	63975,33
736,945	63971,23
737,127	64370,59
737,309	64462,75
737,491	64462,75
737,672	64370,59
737,854	64233,37
738,036	64395,16
738,218	64534,43
738,4	64610,2
738,581	64221,09
738,763	64569,24
738,945	64632,73
739,127	64303
739,308	64233,37
739,49	64436,12
739,672	64556,95
739,853	64176,03
740,035	64415,64
740,216	64593,82
740,398	64642,97
740,58	64362,4
740,761	64311,2
740,943	64413,59
741,124	58183,33
741,306	10129,79
741,487	3514,17
741,669	3912,16
741,85	3893,73
742,032	3729,89
742,213	3807,71
742,394	3819,66
742,576	3662,99
742,757	2913,78
742,939	2832,88
743,12	3102,87
743,301	3102,53
743,483	2908,66
743,664	2819,57
743,845	2984,43
744,027	3150,66
744,208	2999,45
744,389	2833,22
744,57	3246,57
744,752	3151
744,933	3141,44
745,114	3275,93
745,295	3630,22
745,476	3539,09
745,657	3544,89
745,839	3502,23
746,02	3624,76
746,201	3518,27
746,382	3201,52
746,563	3114,14
746,744	3574,93
746,925	3779,04
747,106	3477,65
747,287	3351,7
747,468	4098,53
747,649	5164,15
747,83	11019,29
748,011	31115,67
748,192	62450,28
748,373	62396
748,554	64116,98
748,735	63786,23
748,915	64677,78
749,096	64552,86
749,277	64204,7
749,458	64081,82
749,639	64565,14
749,82	64520,09
750	64501,66
750,181	64151,45
750,362	64636,82
750,543	64425,88
750,723	64255,9
750,904	64343,96
751,085	64571,29
751,265	64548,76
751,446	64354,2
751,627	64380,83
751,807	64511,9
751,988	64544,66
752,169	64243,61
752,349	64395,16
752,53	64593,82
752,71	64593,82
752,891	64004
753,071	64260
753,252	64675,73
753,432	64634,78
753,613	64323,48
753,793	64286,62
753,974	64622,49
754,154	64515,99
754,334	64237,47
754,515	64581,53
754,695	64397,21
754,876	64493,47
755,056	63909,79
755,236	64300,96
755,417	64513,95
755,597	64507,8
755,777	64313,24
755,957	64223,13
756,138	64528,28
756,318	64587,67
756,498	47204,51
756,678	24528,04
756,859	4092,72
757,039	4328,58
757,219	4315,27
757,399	4534,4
757,579	4863,1
757,759	4863,1
757,939	4627,24
758,119	3915,57
758,3	4341,89
758,48	4231,99
758,66	3982,13
758,84	4039,82
759,02	4050,4
759,2	4276,02
759,38	3951,07
759,56	3925,13
759,74	4362,03
759,919	4630,66
760,099	4460,68
760,279	4898,94
760,459	5870,36
760,639	8250,78
760,819	62134,55
760,999	62323,3
761,178	64262,05
761,358	63945,29
761,538	64462,75
761,718	64370,59
761,898	64575,38
762,077	64499,61
762,257	64200,61
762,437	64235,42
762,616	64573,34
762,796	64550,81
762,976	64282,52
763,155	64352,16
763,335	64667,54
763,515	64569,24
763,694	64153,5
763,874	64405,4
764,053	64470,94
764,233	64495,51
764,413	64348,06
764,592	64192,41
764,772	64317,34
764,951	64581,53
765,131	64364,44
765,31	64225,18
765,489	64448,41
765,669	64636,82
765,848	64178,08
766,028	64477,08
766,207	64597,91
766,386	64542,62
766,566	64509,85
766,745	64339,87
766,924	64407,45
767,104	64540,57
767,283	64472,99
767,462	64126,88
767,642	64552,86
767,821	64622,49
768	64608,15
768,179	64335,77
768,358	64456,6
768,538	64548,76
768,717	64325,53
768,896	64331,68
769,075	64434,07
769,254	64667,54
769,433	64284,57
769,612	64188,32
769,791	64683,93
769,97	64593,82
770,149	64266,14
770,328	64515,99
770,507	64522,14
770,686	64700,31
770,865	64192,41
771,044	64380,83
771,223	64696,21
771,402	64556,95
771,581	64260
771,76	64503,71
771,939	64434,07
772,118	64622,49
772,297	64276,38
772,475	64348,06
772,654	64458,65
772,833	64634,78
773,012	63963,04
773,191	64128,93
773,369	64495,51
773,548	64475,03
773,727	64661,4
773,906	63997,86
774,084	64513,95
774,263	64595,86
774,442	64380,83
774,62	64442,27
774,799	64593,82
774,977	64401,31
775,156	64159,65
775,335	64208,8
775,513	64575,38
775,692	64673,69
775,87	63844,26
776,049	64384,92
776,227	64567,19
776,406	64589,72
776,584	64399,26
776,763	64128,93
776,941	64714,65
777,119	64581,53
777,298	64532,38
777,476	64057,25
777,655	64653,21
777,833	64683,93
778,011	64112,54
778,19	64210,85
778,368	64511,9
778,546	64610,2
778,725	64032,67
778,903	64413,59
779,081	64583,58
779,259	64667,54
779,437	64348,06
779,616	64368,54
779,794	64544,66
779,972	64655,26
780,15	64374,68
780,328	64282,52
780,506	64503,71
780,685	64595,86
780,863	64413,59
781,041	64546,71
781,219	64559
781,397	64489,37
781,575	64249,76
781,753	64376,73
781,931	64561,05
782,109	64626,58
782,287	64378,78
782,465	64274,33
782,643	64489,37
782,82	64509,85
782,998	64022,43
783,176	64145,31
783,354	64681,88
783,532	64647,06
783,71	64288,67
783,888	64278,43
784,065	64532,38
784,243	64563,1
784,421	64341,92
784,599	64229,28
784,776	64509,85
784,954	64608,15
785,132	64296,86
785,31	64440,22
785,487	64577,43
785,665	64540,57
785,842	64282,52
786,02	63834,02
786,198	64620,44
786,375	64692,12
786,553	64284,57
786,73	64339,87
786,908	64618,39
787,085	64544,66
787,263	64417,69
787,44	64356,25
787,618	64497,56
787,795	64700,31
787,973	64542,62
788,15	64317,34
788,328	64489,37
788,505	64399,26
788,682	64204,7
788,86	64395,16
789,037	64538,52
789,215	64552,86
789,392	53508,16
789,569	64153,5
789,746	3072,15
789,924	46327,3
790,101	2625,7
790,278	2546,51
790,455	2966
790,633	2871,11
790,81	2530,46
790,987	2619,55
791,164	2914,8
791,341	2954,74
791,518	2867,01
791,695	2774,17
791,873	3436,69
792,05	4647,72
792,227	9563,87
792,404	28332,14
792,581	62003,14
792,758	62259,81
792,935	63746,64
793,112	63564,03
793,289	64552,86
793,466	64485,27
793,643	64450,46
793,82	64575,38
793,996	64569,24
794,173	64499,61
794,35	64477,08
794,527	64063,39
794,704	64339,87
794,881	64556,95
795,057	64262,05
795,234	64546,71
795,411	64579,48
795,588	64522,14
795,765	64575,38
795,941	64356,25
796,118	64626,58
796,295	60681,51
796,471	17479,95
796,648	3589,95
796,825	3440,45
797,001	3547,28
797,178	3030,17
797,354	3082,39
797,531	3519,29
797,708	3739,45
797,884	4221,06
798,061	8762,43
798,237	22495,77
798,414	47333,19
798,59	62113,04
798,767	62037,27
798,943	64094,11
799,119	63868,84
799,296	64366,49
799,472	64288,67
799,649	64688,02
799,825	64487,32
800,001	64442,27
800,178	64536,47
800,354	64552,86
800,53	64585,62
800,707	64546,71
800,883	64466,84
801,059	64651,16
801,235	64216,99
801,411	64434,07
801,588	64565,14
801,764	64442,27
801,94	64626,58
802,116	64444,31
802,292	64468,89
802,468	64571,29
802,645	64528,28
802,821	64135,07
802,997	64268,19
803,173	64593,82
803,349	64659,35
803,525	64399,26
803,701	64313,24
803,877	64573,34
804,053	64589,72
804,229	49608,15
804,405	27223,51
804,581	3810,44
804,756	3749,35
804,932	3440,45
805,108	3507
805,284	3907,38
805,46	4027,87
805,636	3854,13
805,812	3946,98
805,987	4280,8
806,163	4304,69
806,339	1628,68
806,515	4221,06
806,69	4387,63
806,866	4383,88
807,042	4034,01
807,217	4328,92
807,393	4998,27
807,569	6343,44
807,744	12268,21
807,92	35237,21
808,096	62420,24
808,271	62214,08
808,447	63920,72
808,622	63735,72
808,798	64556,95
808,973	64608,15
809,149	64237,47
809,324	64227,23
809,5	64583,58
809,675	64606,1
809,851	64339,87
810,026	64274,33
810,201	64505,75
810,377	64620,44
810,552	64413,59
810,728	64241,57
810,903	64579,48
811,078	64630,68
811,253	64188,32
811,429	64626,58
811,604	64745,37
811,779	64610,2
811,955	64315,29
812,13	64346,01
812,305	64536,47
812,48	64585,62
812,655	64024,48
812,83	64090,02
813,006	64593,82
813,181	64579,48
813,356	64526,23
813,531	64585,62
813,706	64563,1
813,881	64673,69
814,056	64438,17
814,231	64153,5
814,406	64579,48
814,581	64790,42
814,756	64325,53
814,931	64317,34
815,106	64593,82
815,281	64583,58
815,456	64114,59
815,631	64335,77
815,805	64669,59
815,98	64604,06
816,155	64374,68
816,33	64382,88
816,505	64597,91
816,68	64630,68
816,854	64458,65
817,029	64348,06
817,204	64587,67
817,379	64579,48
817,553	64171,93
817,728	64442,27
817,903	64612,25
818,077	64513,95
818,252	64358,3
818,427	64196,51
818,601	64583,58
818,776	64614,3
818,95	64470,94
819,125	64143,26
819,299	64610,2
819,474	64501,66
819,648	64352,16
819,823	64071,58
819,997	64538,52
820,172	64704,41
820,346	64288,67
820,521	64282,52
820,695	64622,49
820,87	64661,4
821,044	64403,36
821,218	64362,4
821,393	64450,46
821,567	64735,13
821,741	64372,64
821,916	64403,36
822,09	64507,8
822,264	64675,73
822,438	64518,04
822,613	64384,92
822,787	64513,95
822,961	64661,4
823,135	64159,65
823,309	64409,5
823,483	64636,82
823,658	64589,72
823,832	64114,59
824,006	64649,11
824,18	64618,39
824,354	64642,97
824,528	64358,3
824,702	64169,89
824,876	64653,21
825,05	64511,9
825,224	64274,33
825,398	64159,65
825,572	64685,97
825,746	64634,78
825,92	64004
826,093	64329,63
826,267	64522,14
826,441	64685,97
826,615	64122,78
826,789	64112,54
826,963	64585,62
827,136	64577,43
827,31	64337,82
827,484	64571,29
827,658	64690,07
827,831	64622,49
828,005	64399,26
828,179	64569,24
828,353	64542,62
828,526	64636,82
828,7	64362,4
828,873	64556,95
829,047	64538,52
829,221	64630,68
829,394	64323,48
829,568	64325,53
829,741	64661,4
829,915	64708,5
830,088	64061,34
830,262	63991,71
830,435	64620,44
830,609	64503,71
830,782	64305,05
830,956	64262,05
831,129	64524,19
831,302	64694,17
831,476	64413,59
831,649	64493,47
831,822	64548,76
831,996	64499,61
832,169	64053,15
832,342	64661,4
832,516	64681,88
832,689	64806,8
832,862	64223,13
833,035	64042,91
833,209	64348,06
833,382	64554,9
833,555	64616,34
833,728	64485,27
833,901	64630,68
834,074	64587,67
834,247	64421,79
834,42	64249,76
834,594	64597,91
834,767	64495,51
834,94	64139,17
835,113	64239,52
835,286	64507,8
835,459	64563,1
835,632	64382,88
835,805	64413,59
835,977	64466,84
836,15	64470,94
836,323	64448,41
836,496	64176,03
836,669	64509,85
836,842	64569,24
837,015	64130,98
837,188	64333,72
837,36	64509,85
837,533	64522,14
837,706	64233,37
837,879	64182,17
838,051	64604,06
838,224	64487,32
838,397	64358,3
838,569	64200,61
838,742	64642,97
838,915	64696,21
839,087	64200,61
839,26	64196,51
839,433	64577,43
839,605	64429,98
839,778	64653,21
839,95	64229,28
840,123	64593,82
840,295	64458,65
840,468	64538,52
840,64	64321,44
840,813	64614,3
840,985	64454,55
841,158	64278,43
841,33	64274,33
841,502	64624,54
841,675	64620,44
841,847	64143,26
842,019	64184,22
842,192	64593,82
842,364	64604,06
842,536	64399,26
842,709	64323,48
842,881	64591,77
843,053	64520,09
843,225	64350,11
843,398	64104,35
843,57	64522,14
843,742	64634,78
843,914	64303
844,086	64020,38
844,258	64651,16
844,43	64505,75
844,602	64133,02
844,775	64405,4
844,947	64602,01
845,119	64642,97
845,291	64008,1
845,463	64028,58
845,635	64653,21
845,807	64538,52
845,979	64253,85
846,15	64221,09
846,322	64606,1
846,494	64683,93
846,666	64429,98
846,838	64225,18
847,01	64659,35
847,182	64567,19
847,354	64247,71
847,525	64227,23
847,697	64587,67
847,869	64622,49
848,041	64229,28
848,212	64139,17
848,384	64722,84
848,556	64599,96
848,727	64182,17
848,899	64511,9
849,071	64556,95
849,242	64509,85
849,414	64161,69
849,585	64305,05
849,757	64640,92
849,929	64454,55
850,1	64462,75
850,272	64147,36
850,443	64497,56
850,615	64403,36
850,786	64362,4
850,958	64403,36
851,129	64530,33
851,3	64587,67
851,472	64298,91
851,643	64372,64
851,815	64495,51
851,986	64503,71
852,157	64202,65
852,329	63858,6
852,5	64747,41
852,671	64395,16
852,842	64286,62
853,014	64417,69
853,185	64647,06
853,356	64591,77
853,527	64182,17
853,698	16826,99
853,87	6915,17
854,041	2136,57
854,212	1838,59
854,383	1849,51
854,554	2161,15
854,725	2135,21
854,896	1757,36
855,067	1797,63
855,238	2154,66
855,409	2004,82
855,58	1841,66
855,751	1517,4
855,922	2030,42
856,093	1488,39
856,264	1918,12
856,435	1709,91
856,606	2045,1
856,777	1979,56
856,948	1639,26
857,118	1767,6
857,289	1932,8
857,46	1772,37
857,631	1637,55
857,802	1610,93
857,972	1963,18
858,143	1958,74
858,314	1785,35
858,484	1861,46
858,655	2022,23
858,826	1932,12
858,996	1761,45
859,167	1505,11
859,338	2063,19
859,508	1828,35
859,679	1640,28
859,849	1743,7
860,02	1955,67
860,19	1821,53
860,361	1455,96
860,531	1707,86
860,702	1919,15
860,872	1814,02
861,043	1732,1
861,213	1452,55
861,384	1807,87
861,554	1737,9
861,724	1725,61
861,895	1592,15
862,065	1574,4
862,235	1806,17
862,406	1458,69
862,576	1555,63
862,746	1751,21
862,916	1707,86
863,087	1299,98
863,257	1514,33
863,427	1867,61
863,597	1894,23
863,767	1453,92
863,937	1730,39
864,108	1913,34
864,278	2063,87
864,448	1985,36
864,618	2619,55
864,788	4039,82
864,958	5272,35
865,128	6368,36
865,298	7490,64
865,468	8190,71
865,638	8144,97
865,808	7029,85
865,978	5815,41
866,148	5101,35
866,318	4328,58
866,487	3229,16
866,657	3032,56
866,827	2838,34
866,997	2728,78
867,167	1888,77
867,337	1882,28
867,506	2062,84
867,676	1868,97
867,846	1584,99
868,016	1317,73
868,185	1670,66
868,355	1577,82
868,525	1337,52
868,694	1335,13
868,864	1677,14
869,034	1479,52
869,203	1277,11
869,373	1298,95
869,542	1675,1
869,712	1631,06
869,881	1189,04
870,051	1327,97
870,22	1563,48
870,39	1517,06
870,559	1230,69
870,729	1507,16
870,898	1483,95
871,068	1613,32
871,237	1304,76
871,406	1328,99
871,576	1402,72
871,745	1531,74
871,914	1304,76
872,084	1280,52
872,253	1575,09
872,422	1492,14
872,591	1137,5
872,761	1395,89
872,93	1606,49
873,099	1445,38
873,268	1209,87
873,437	1383,6
873,607	1544,03
873,776	1316,7
873,945	1023,84
874,114	1289,4
874,283	1417,39
874,452	1378,82
874,621	1119,76
874,79	1122,49
874,959	1565,53
875,128	1407,84
875,297	1096,55
875,466	1031,69
875,635	1437,87
875,804	1276,08
875,973	1148,43
876,142	886,63
876,31	1387,36
876,479	1319,77
876,648	1060,71
876,817	1211,23
876,986	1412,96
877,155	1239,22
877,323	1222,5
877,492	955,24
877,661	1302,02
877,829	1207,82
877,998	1006,43
878,167	912,91
878,335	1317,38
878,504	1258,68
878,673	1128,63
878,841	1247,75
879,01	1263,11
879,178	1289,74
879,347	917,01
879,515	1061,73
879,684	1142,97
879,852	1234,78
880,021	1008,48
880,189	890,04
880,358	1219,42
880,526	1006,43
880,695	1162,42
880,863	884,24
881,031	1327,28
881,2	1360,39
881,368	1101,32
881,536	754,19
881,705	1305,44
881,873	1263,45
882,041	883,21
882,21	928,95
882,378	1244
882,546	1124,19
882,714	866,83
882,882	1010,87
883,05	1082,21
883,219	1075,72
883,387	1048,76
883,555	990,73
883,723	1175,73
883,891	1266,53
884,059	1046,37
884,227	768,87
884,395	1180,17
884,563	1224,2
884,731	829,63
884,899	696,51
885,067	1088,69
885,235	1094,84
885,403	750,44
885,571	773,65
885,739	1178,46
